Subject,SubjectID,Condition ,Trial,recall_order,current_day,trial_day,trial_time,day_no,days_past,trial,RT,condition_time_box,Response,Total Number of People,Unique Within Day,Unique Overall,Specific Description,Vague Description,Vague.Unique.Overall,Vague.Unique.Day,Specific.Unique.Overall,Specific.Unique.Day,Plural.Exists,Only.Number.Exists
1001,4k6754ce3x,BF,backward,1,Monday,Monday,evening,1,1,1,40419.185,Evening (after 6 pm),"My mom, my dad, my sister",3,3,3,3,0,0,0,3,3,,
1001,4k6754ce3x,BF,backward,1,Monday,Monday,midday,1,1,2,24491.365,Midday (noon - 6 pm),"my mom, my dad, my sister, the lady that did my eyebrows",4,4,4,3,1,1,1,3,3,,
1001,4k6754ce3x,BF,backward,1,Monday,Monday,morning,1,1,3,17016.03,Morning (until noon),"my mom, my dad, my sister",3,2,2,3,0,0,0,2,2,,
1001,4k6754ce3x,BF,backward,1,Monday,Sunday,evening,2,2,4,13914.81,Evening (after 6 pm),my roommate,1,1,1,1,0,0,0,1,1,,
1001,4k6754ce3x,BF,backward,1,Monday,Sunday,midday,2,2,5,32196.14,Midday (noon - 6 pm),my roommate,1,0,0,1,0,0,0,0,0,,
1001,4k6754ce3x,BF,backward,1,Monday,Sunday,morning,2,2,6,4309.590001,Morning (until noon),my roommate,1,1,1,1,0,0,0,1,1,,
1001,4k6754ce3x,BF,backward,1,Monday,Saturday,evening,3,3,7,6563.295,Evening (after 6 pm),my roommate,1,1,0,1,0,0,0,0,1,,
1001,4k6754ce3x,BF,backward,1,Monday,Saturday,midday,3,3,8,27959.395,Midday (noon - 6 pm),my roommate,1,0,0,1,0,0,0,0,0,,
1001,4k6754ce3x,BF,backward,1,Monday,Saturday,morning,3,3,9,11676.84,Morning (until noon),my roommate,1,0,0,1,0,0,0,0,0,,
1001,4k6754ce3x,BF,backward,1,Monday,Friday,evening,4,4,10,6989.244999,Evening (after 6 pm),my roommate,1,1,1,1,0,0,0,1,1,,
1001,4k6754ce3x,BF,backward,1,Monday,Friday,midday,4,4,11,3366.154999,Midday (noon - 6 pm),my roommate,1,0,0,1,0,0,0,0,0,,
1001,4k6754ce3x,BF,backward,1,Monday,Friday,morning,4,4,12,3469.815,Morning (until noon),my roommate,1,0,0,1,0,0,0,0,0,,
1001,4k6754ce3x,BF,forward,2,Monday,Friday,morning,4,1,13,32333.08,Morning (until noon),"my roommate, person at dining hall packing my food",2,2,2,1,1,1,1,1,1,,
1001,4k6754ce3x,BF,forward,2,Monday,Friday,midday,4,1,14,5608.48,Midday (noon - 6 pm),my roommate,1,0,0,1,0,0,0,0,0,,
1001,4k6754ce3x,BF,forward,2,Monday,Friday,evening,4,1,15,3378.425,Evening (after 6 pm),my roommate,1,1,1,1,0,0,0,1,1,,
1001,4k6754ce3x,BF,forward,2,Monday,Saturday,morning,3,2,16,19484.4,Morning (until noon),"my roommate, person at dining hall packing my food",2,2,0,1,1,0,0,0,2,,
1001,4k6754ce3x,BF,forward,2,Monday,Saturday,midday,3,2,17,6884.245,Midday (noon - 6 pm),my roommate,1,0,0,1,0,0,0,0,0,,
1001,4k6754ce3x,BF,forward,2,Monday,Saturday,evening,3,2,18,3153.16,Evening (after 6 pm),my roommate,1,0,0,1,0,0,0,0,0,,
1001,4k6754ce3x,BF,forward,2,Monday,Sunday,morning,2,3,19,6304.795001,Morning (until noon),my roommate,1,1,1,1,0,0,0,1,1,,
1001,4k6754ce3x,BF,forward,2,Monday,Sunday,midday,2,3,20,3630.855001,Midday (noon - 6 pm),my roommate,1,0,0,1,0,0,0,0,0,,
1001,4k6754ce3x,BF,forward,2,Monday,Sunday,evening,2,3,21,27606.34,Evening (after 6 pm),"my mom, my dad, my sister",3,2,1,3,0,0,0,1,2,,
1001,4k6754ce3x,BF,forward,2,Monday,Monday,morning,1,4,22,7423.53,Morning (until noon),"my mom, my dad, my sister",3,3,1,3,0,0,0,1,3,,
1001,4k6754ce3x,BF,forward,2,Monday,Monday,midday,1,4,23,9112.865,Midday (noon - 6 pm),"my mom, my dad, my sister",3,0,0,3,0,0,0,0,0,,
1001,4k6754ce3x,BF,forward,2,Monday,Monday,evening,1,4,24,14449.35,Evening (after 6 pm),"my mom, my dad, my sister, the lady doing my eyebrows",4,1,1,3,1,0,1,1,0,,
1002,4t7v6dty74,BB,backward,1,Saturday,Saturday,evening,1,1,1,33214.69,Evening (after 6 pm),"best friend at isr, 2 friends at isr",3,3,3,3,0,0,0,3,3,,
1002,4t7v6dty75,BB,backward,1,Saturday,Saturday,midday,1,1,2,14006.97,Midday (noon - 6 pm),best friend,1,1,1,1,0,0,0,1,1,,
1002,4t7v6dty76,BB,backward,1,Saturday,Saturday,morning,1,1,3,11198.705,Morning (until noon),2 friends at apartment,2,2,2,2,0,0,0,2,2,,
1002,4t7v6dty77,BB,backward,1,Saturday,Friday,evening,2,2,4,8225.31,Evening (after 6 pm),parents,2,2,2,2,0,0,0,2,2,,
1002,4t7v6dty78,BB,backward,1,Saturday,Friday,midday,2,2,5,4100.915,Midday (noon - 6 pm),parents,2,1,0,2,0,0,0,0,1,,
1002,4t7v6dty79,BB,backward,1,Saturday,Friday,morning,2,2,6,6380.375,Morning (until noon),mom,1,0,0,1,0,0,0,0,0,,
1002,4t7v6dty80,BB,backward,1,Saturday,Thursday,evening,3,3,7,3511.835,Evening (after 6 pm),parents,2,2,0,2,0,0,0,0,2,,
1002,4t7v6dty81,BB,backward,1,Saturday,Thursday,midday,3,3,8,4702.57,Midday (noon - 6 pm),xx,0,0,0,0,0,0,0,0,0,,
1002,4t7v6dty82,BB,backward,1,Saturday,Thursday,morning,3,3,9,2630.58,Morning (until noon),xx,0,0,0,0,0,0,0,0,0,,
1002,4t7v6dty83,BB,backward,1,Saturday,Wednesday,evening,4,4,10,3497.72,Evening (after 6 pm),parents,2,2,0,2,0,0,0,0,2,,
1002,4t7v6dty84,BB,backward,1,Saturday,Wednesday,midday,4,4,11,2296.855,Midday (noon - 6 pm),xx,0,0,0,0,0,0,0,0,0,,
1002,4t7v6dty85,BB,backward,1,Saturday,Wednesday,morning,4,4,12,1696.25,Morning (until noon),xx,0,0,0,0,0,0,0,0,0,,
1002,4t7v6dty86,BB,backward,2,Saturday,Saturday,evening,1,1,13,18533.64,Evening (after 6 pm),"best friend at isr, 2 friends at isr",3,3,3,3,0,0,0,3,3,,
1002,4t7v6dty87,BB,backward,2,Saturday,Saturday,midday,1,1,14,12151.805,Midday (noon - 6 pm),2 friends at apartment,2,0,0,2,0,0,0,0,0,,
1002,4t7v6dty88,BB,backward,2,Saturday,Saturday,morning,1,1,15,4747.59,Morning (until noon),xx,0,0,0,0,0,0,0,0,0,,
1002,4t7v6dty89,BB,backward,2,Saturday,Friday,evening,2,2,16,3972.355,Evening (after 6 pm),parents,2,2,0,2,0,0,0,0,2,,
1002,4t7v6dty90,BB,backward,2,Saturday,Friday,midday,2,2,17,3005.355,Midday (noon - 6 pm),xx,0,0,0,0,0,0,0,0,0,,
1002,4t7v6dty91,BB,backward,2,Saturday,Friday,morning,2,2,18,2225.285,Morning (until noon),xx,0,0,0,0,0,0,0,0,0,,
1002,4t7v6dty92,BB,backward,2,Saturday,Thursday,evening,3,3,19,2655.45,Evening (after 6 pm),parents,2,2,0,2,0,0,0,0,2,,
1002,4t7v6dty93,BB,backward,2,Saturday,Thursday,midday,3,3,20,2048.735,Midday (noon - 6 pm),xx,0,0,0,0,0,0,0,0,0,,
1002,4t7v6dty94,BB,backward,2,Saturday,Thursday,morning,3,3,21,1061.975,Morning (until noon),xx,0,0,0,0,0,0,0,0,0,,
1002,4t7v6dty95,BB,backward,2,Saturday,Wednesday,evening,4,4,22,2642.365,Evening (after 6 pm),parents,2,2,0,2,0,0,0,0,2,,
1002,4t7v6dty96,BB,backward,2,Saturday,Wednesday,midday,4,4,23,1944.39,Midday (noon - 6 pm),xx,0,0,0,0,0,0,0,0,0,,
1002,4t7v6dty97,BB,backward,2,Saturday,Wednesday,morning,4,4,24,1260.895,Morning (until noon),xx,0,0,0,0,0,0,0,0,0,,
1003,ag4f37ymkw,BF,backward,1,Saturday,Saturday,evening,1,1,1,39163.72,Evening (after 6 pm),"Brother, Mother, Father, German",4,4,4,4,0,0,0,4,4,,
1003,ag4f37ymkw,BF,backward,1,Saturday,Saturday,midday,1,1,2,39616.135,Midday (noon - 6 pm),"Brother, Mother, Ahmed",3,2,2,3,0,0,0,2,2,,
1003,ag4f37ymkw,BF,backward,1,Saturday,Saturday,morning,1,1,3,11897.485,Morning (until noon),"Brother, Mother",2,2,2,2,0,0,0,2,2,,
1003,ag4f37ymkw,BF,backward,1,Saturday,Friday,evening,2,2,4,12758.395,Evening (after 6 pm),"Brother, Mother",2,2,0,2,0,0,0,0,2,,
1003,ag4f37ymkw,BF,backward,1,Saturday,Friday,midday,2,2,5,12754.33,Midday (noon - 6 pm),"Brother, Mother",2,0,0,2,0,0,0,0,0,,
1003,ag4f37ymkw,BF,backward,1,Saturday,Friday,morning,2,2,6,6000.175,Morning (until noon),"Brother, Mother",2,0,0,2,0,0,0,0,0,,
1003,ag4f37ymkw,BF,backward,1,Saturday,Thursday,evening,3,3,7,13035.815,Evening (after 6 pm),"Brother, Mother",2,2,1,2,0,0,0,1,2,,
1003,ag4f37ymkw,BF,backward,1,Saturday,Thursday,midday,3,3,8,23558.255,Midday (noon - 6 pm),"Brother, Mother",2,0,0,2,0,0,0,0,0,,
1003,ag4f37ymkw,BF,backward,1,Saturday,Thursday,morning,3,3,9,6179.45,Morning (until noon),"Brother, Mother",2,0,0,2,0,0,0,0,0,,
1003,ag4f37ymkw,BF,backward,1,Saturday,Wednesday,evening,4,4,10,13705.5,Evening (after 6 pm),"Brother, Mother, German",3,3,1,3,0,0,0,1,3,,
1003,ag4f37ymkw,BF,backward,1,Saturday,Wednesday,midday,4,4,11,7480.83,Midday (noon - 6 pm),"Brother, Mother, German",3,0,0,3,0,0,0,0,0,,
1003,ag4f37ymkw,BF,backward,1,Saturday,Wednesday,morning,4,4,12,12761.45,Morning (until noon),"Brother, Mother",2,0,0,2,0,0,0,0,0,,
1003,ag4f37ymkw,BF,forward,2,Saturday,Wednesday,morning,4,1,13,16239.21,Morning (until noon),"Brother, Mother",2,2,0,2,0,0,0,0,2,,
1003,ag4f37ymkw,BF,forward,2,Saturday,Wednesday,midday,4,1,14,6193.23,Midday (noon - 6 pm),"Brother, Mother, German",3,1,1,3,0,0,0,1,1,,
1003,ag4f37ymkw,BF,forward,2,Saturday,Wednesday,evening,4,1,15,13931.05,Evening (after 6 pm),"Brother, Mother, Father, German",4,2,0,4,0,0,0,0,2,,
1003,ag4f37ymkw,BF,forward,2,Saturday,Thursday,morning,3,2,16,9652.065,Morning (until noon),"Brother, Mother",2,2,0,2,0,0,0,0,2,,
1003,ag4f37ymkw,BF,forward,2,Saturday,Thursday,midday,3,2,17,10689.965,Midday (noon - 6 pm),"Brother, Mother",2,0,0,2,0,0,0,0,0,,
1003,ag4f37ymkw,BF,forward,2,Saturday,Thursday,evening,3,2,18,9374.28,Evening (after 6 pm),"Brother, Mother,Father",3,1,0,3,0,0,0,0,1,,
1003,ag4f37ymkw,BF,forward,2,Saturday,Friday,morning,2,3,19,6663.195,Morning (until noon),"Brother, Mother",2,2,0,2,0,0,0,0,2,,
1003,ag4f37ymkw,BF,forward,2,Saturday,Friday,midday,2,3,20,6237.56,Midday (noon - 6 pm),"Brother, Mother",2,0,0,2,0,0,0,0,0,,
1003,ag4f37ymkw,BF,forward,2,Saturday,Friday,evening,2,3,21,9146.155,Evening (after 6 pm),"Brother, Mother, Father",3,1,0,3,0,0,0,0,1,,
1003,ag4f37ymkw,BF,forward,2,Saturday,Saturday,morning,1,4,22,22279.145,Morning (until noon),"Brother, Mother",2,2,0,2,0,0,0,0,2,,
1003,ag4f37ymkw,BF,forward,2,Saturday,Saturday,midday,1,4,23,16465.75,Midday (noon - 6 pm),"Brother, Mother, Ahmed",3,1,1,3,0,0,0,1,1,,
1003,ag4f37ymkw,BF,forward,2,Saturday,Saturday,evening,1,4,24,11643.34,Evening (after 6 pm),"Brother, Mother",2,0,0,2,0,0,0,0,0,,
1004,at6vyzhoe6,FB,forward,1,Sunday,Thursday,morning,1,4,1,18169.22,Morning (until noon),Leah,1,1,1,1,0,0,0,1,1,,
1004,at6vyzhoe7,FB,forward,1,Sunday,Thursday,midday,1,4,2,21476.59,Midday (noon - 6 pm),"Leah, Sam",2,2,2,2,0,0,0,2,2,,
1004,at6vyzhoe8,FB,forward,1,Sunday,Thursday,evening,1,4,3,6327.965,Evening (after 6 pm),"Leah, Sam",2,1,1,2,0,0,0,1,1,,
1004,at6vyzhoe9,FB,forward,1,Sunday,Friday,morning,2,3,4,10652.665,Morning (until noon),Leah,1,1,0,1,0,0,0,0,1,,
1004,at6vyzhoe10,FB,forward,1,Sunday,Friday,midday,2,3,5,11606.06,Midday (noon - 6 pm),"Leah, Sam",2,1,1,2,0,0,0,1,1,,
1004,at6vyzhoe11,FB,forward,1,Sunday,Friday,evening,2,3,6,4292.07,Evening (after 6 pm),no one,0,0,0,0,0,0,0,0,0,,
1004,at6vyzhoe12,FB,forward,1,Sunday,Saturday,morning,3,2,7,9563.205,Morning (until noon),"Leah, Sam",2,2,0,2,0,0,0,0,2,,
1004,at6vyzhoe13,FB,forward,1,Sunday,Saturday,midday,3,2,8,8646.73,Midday (noon - 6 pm),"Sam, Leah, Leah",2,0,0,2,0,0,0,0,0,,
1004,at6vyzhoe14,FB,forward,1,Sunday,Saturday,evening,3,2,9,14628.49,Evening (after 6 pm),no one,0,0,0,0,0,0,0,0,0,,
1004,at6vyzhoe15,FB,forward,1,Sunday,Sunday,morning,4,1,10,9094.44,Morning (until noon),"Leah, Sam, Leah",2,2,1,2,0,0,0,1,2,,
1004,at6vyzhoe16,FB,forward,1,Sunday,Sunday,midday,4,1,11,16730.915,Midday (noon - 6 pm),"Leah, Sam, Leah",2,0,0,2,0,0,0,0,0,,
1004,at6vyzhoe17,FB,forward,1,Sunday,Sunday,evening,4,1,12,5867.79,Evening (after 6 pm),no one,0,0,0,0,0,0,0,0,0,,
1004,at6vyzhoe18,FB,backward,2,Sunday,Sunday,evening,1,1,13,5959.815,Evening (after 6 pm),no one,0,0,0,0,0,0,0,0,0,,
1004,at6vyzhoe19,FB,backward,2,Sunday,Sunday,midday,1,1,14,9088.435,Midday (noon - 6 pm),"Leah, Sam, Leah",2,2,0,2,0,0,0,0,2,,
1004,at6vyzhoe20,FB,backward,2,Sunday,Sunday,morning,1,1,15,10476.885,Morning (until noon),"Leah, Sam, Leah",2,0,0,2,0,0,0,0,0,,
1004,at6vyzhoe21,FB,backward,2,Sunday,Saturday,evening,2,2,16,11312.91,Evening (after 6 pm),"Leah, Sam, Leah",2,2,0,2,0,0,0,0,2,,
1004,at6vyzhoe22,FB,backward,2,Sunday,Saturday,midday,2,2,17,8713.415,Midday (noon - 6 pm),"Leah, Sam, Leah",2,0,0,2,0,0,0,0,0,,
1004,at6vyzhoe23,FB,backward,2,Sunday,Saturday,morning,2,2,18,8387.345,Morning (until noon),"Sam, Leah",2,0,0,2,0,0,0,0,0,,
1004,at6vyzhoe24,FB,backward,2,Sunday,Friday,evening,3,3,19,8167.355,Evening (after 6 pm),no one,0,0,0,0,0,0,0,0,0,,
1004,at6vyzhoe25,FB,backward,2,Sunday,Friday,midday,3,3,20,9089.68,Midday (noon - 6 pm),"Leah, Sam",2,2,0,2,0,0,0,0,2,,
1004,at6vyzhoe26,FB,backward,2,Sunday,Friday,morning,3,3,21,3443.155,Morning (until noon),Leah,1,0,0,1,0,0,0,0,0,,
1004,at6vyzhoe27,FB,backward,2,Sunday,Thursday,evening,4,4,22,15431.67,Evening (after 6 pm),"Leah, Sam",2,2,0,2,0,0,0,0,2,,
1004,at6vyzhoe28,FB,backward,2,Sunday,Thursday,midday,4,4,23,4721.975,Midday (noon - 6 pm),"Leah, Sam",2,0,0,2,0,0,0,0,0,,
1004,at6vyzhoe29,FB,backward,2,Sunday,Thursday,morning,4,4,24,2806.26,Morning (until noon),Leah,1,0,0,1,0,0,0,0,0,,
1005,bjay8wy8n5,FF,forward,1,Thursday,Monday,morning,1,4,1,24817.825,Morning (until noon),nobody,0,0,0,0,0,0,0,0,0,,
1005,bjay8wy8n6,FF,forward,1,Thursday,Monday,midday,1,4,2,6692.3,Midday (noon - 6 pm),nobody,0,0,0,0,0,0,0,0,0,,
1005,bjay8wy8n7,FF,forward,1,Thursday,Monday,evening,1,4,3,8763.635,Evening (after 6 pm),nobody,0,0,0,0,0,0,0,0,0,,
1005,bjay8wy8n8,FF,forward,1,Thursday,Tuesday,morning,2,3,4,10437.38,Morning (until noon),Roy,1,1,1,1,0,0,0,1,1,,
1005,bjay8wy8n9,FF,forward,1,Thursday,Tuesday,midday,2,3,5,4748.97,Midday (noon - 6 pm),Yash,1,1,1,1,0,0,0,1,1,,
1005,bjay8wy8n10,FF,forward,1,Thursday,Tuesday,evening,2,3,6,6027.09,Evening (after 6 pm),Yash,1,0,0,1,0,0,0,0,0,,
1005,bjay8wy8n11,FF,forward,1,Thursday,Wednesday,morning,3,2,7,10412.66,Morning (until noon),Nobody,0,0,0,0,0,0,0,0,0,,
1005,bjay8wy8n12,FF,forward,1,Thursday,Wednesday,midday,3,2,8,2204.445,Midday (noon - 6 pm),Nobody,0,0,0,0,0,0,0,0,0,,
1005,bjay8wy8n13,FF,forward,1,Thursday,Wednesday,evening,3,2,9,1915.365,Evening (after 6 pm),Nobody,0,0,0,0,0,0,0,0,0,,
1005,bjay8wy8n14,FF,forward,1,Thursday,Thursday,morning,4,1,10,3435.07,Morning (until noon),Nobody,0,0,0,0,0,0,0,0,0,,
1005,bjay8wy8n15,FF,forward,1,Thursday,Thursday,midday,4,1,11,2779.015,Midday (noon - 6 pm),Nobody,0,0,0,0,0,0,0,0,0,,
1005,bjay8wy8n16,FF,forward,1,Thursday,Thursday,evening,4,1,12,3854.215,Evening (after 6 pm),n/a,0,0,0,0,0,0,0,0,0,,
1005,bjay8wy8n17,FF,forward,2,Thursday,Monday,morning,1,4,13,3466.355,Morning (until noon),Nobody,0,0,0,0,0,0,0,0,0,,
1005,bjay8wy8n18,FF,forward,2,Thursday,Monday,midday,1,4,14,2121.33,Midday (noon - 6 pm),Nobody,0,0,0,0,0,0,0,0,0,,
1005,bjay8wy8n19,FF,forward,2,Thursday,Monday,evening,1,4,15,1211.745,Evening (after 6 pm),Nobody,0,0,0,0,0,0,0,0,0,,
1005,bjay8wy8n20,FF,forward,2,Thursday,Tuesday,morning,2,3,16,3524.785,Morning (until noon),roy,1,1,1,1,0,0,0,1,1,,
1005,bjay8wy8n21,FF,forward,2,Thursday,Tuesday,midday,2,3,17,2881.29,Midday (noon - 6 pm),yash,1,0,0,1,0,0,0,0,0,,
1005,bjay8wy8n22,FF,forward,2,Thursday,Tuesday,evening,2,3,18,3726.63,Evening (after 6 pm),yash,1,0,0,1,0,0,0,0,0,,
1005,bjay8wy8n23,FF,forward,2,Thursday,Wednesday,morning,3,2,19,2721.67,Morning (until noon),Nobody,0,0,0,0,0,0,0,0,0,,
1005,bjay8wy8n24,FF,forward,2,Thursday,Wednesday,midday,3,2,20,2941.745,Midday (noon - 6 pm),Nobody,0,0,0,0,0,0,0,0,0,,
1005,bjay8wy8n25,FF,forward,2,Thursday,Wednesday,evening,3,2,21,1709.08,Evening (after 6 pm),Nobody,0,0,0,0,0,0,0,0,0,,
1005,bjay8wy8n26,FF,forward,2,Thursday,Thursday,morning,4,1,22,2243.255,Morning (until noon),Nobody,0,0,0,0,0,0,0,0,0,,
1005,bjay8wy8n27,FF,forward,2,Thursday,Thursday,midday,4,1,23,1652.445,Midday (noon - 6 pm),Nobody,0,0,0,0,0,0,0,0,0,,
1005,bjay8wy8n28,FF,forward,2,Thursday,Thursday,evening,4,1,24,2355.55,Evening (after 6 pm),n/a,0,0,0,0,0,0,0,0,0,,
1006,h9c571e7gv,BB,backward,1,Wednesday,Wednesday,evening,1,1,1,11006.61,Evening (after 6 pm),it is not yet evening,0,0,0,0,0,0,0,0,0,,
1006,h9c571e7gv,BB,backward,1,Wednesday,Wednesday,midday,1,1,2,39557.91,Midday (noon - 6 pm),"Ethan, Sam",2,2,2,2,0,0,0,2,2,,
1006,h9c571e7gv,BB,backward,1,Wednesday,Wednesday,morning,1,1,3,60838.255,Morning (until noon),"Roberson, Boast, Allsbrooks, Schmitt, Villanova, Berryhill, Gerst, Briick, Brown, Damewood, Kempf",11,11,11,11,0,0,0,11,11,,
1006,h9c571e7gv,BB,backward,1,Wednesday,Tuesday,evening,2,2,4,23838.685,Evening (after 6 pm),"Roberson, Bright, Thompson, Colin",4,4,3,4,0,0,0,3,4,,
1006,h9c571e7gv,BB,backward,1,Wednesday,Tuesday,midday,2,2,5,20141.975,Midday (noon - 6 pm),"Ethan, Sam",2,1,1,2,0,0,0,1,1,,
1006,h9c571e7gv,BB,backward,1,Wednesday,Tuesday,morning,2,2,6,30894.155,Morning (until noon),"DeTulleo, Briick, Kane, Spitzner, Gould",5,4,4,5,0,0,0,4,4,,
1006,h9c571e7gv,BB,backward,1,Wednesday,Monday,evening,3,3,7,27726.73,Evening (after 6 pm),"Ethan, Adam, Sam, Lee, Ryan",5,5,3,5,0,0,0,3,5,,
1006,h9c571e7gv,BB,backward,1,Wednesday,Monday,midday,3,3,8,17710.27,Midday (noon - 6 pm),Nobody else,0,0,0,0,0,0,0,0,0,,
1006,h9c571e7gv,BB,backward,1,Wednesday,Monday,morning,3,3,9,6558.12,Morning (until noon),Nobody else,0,0,0,0,0,0,0,0,0,,
1006,h9c571e7gv,BB,backward,1,Wednesday,Sunday,evening,4,4,10,25782.96,Evening (after 6 pm),"Ethan, Sam",2,2,0,2,0,0,0,0,2,,
1006,h9c571e7gv,BB,backward,1,Wednesday,Sunday,midday,4,4,11,5142.37,Midday (noon - 6 pm),"Adam, Lee",2,0,0,2,0,0,0,0,0,,
1006,h9c571e7gv,BB,backward,1,Wednesday,Sunday,morning,4,4,12,3070.475,Morning (until noon),Boast,1,0,0,1,0,0,0,0,0,,
1006,h9c571e7gv,BB,backward,2,Wednesday,Wednesday,evening,1,1,13,6893.13,Evening (after 6 pm),It is not evening,0,0,0,0,0,0,0,0,0,,
1006,h9c571e7gv,BB,backward,2,Wednesday,Wednesday,midday,1,1,14,7278.825,Midday (noon - 6 pm),"Bright, Sam",2,2,0,2,0,0,0,0,2,,
1006,h9c571e7gv,BB,backward,2,Wednesday,Wednesday,morning,1,1,15,54086.09,Morning (until noon),"Kisantier, Roberson, Allsbrooks, Adam, Lee, Villanova, Schmitt, Boast, Bright, Sam, Briick, Brown, Berryhill",13,11,1,13,0,0,0,1,11,,
1006,h9c571e7gv,BB,backward,2,Wednesday,Tuesday,evening,2,2,16,55678.825,Evening (after 6 pm),"Roberson, Bright, Thompson, Colin, Mietti, Gerst, Yim, Lee, Brautigam, Hudson, Adam",11,11,5,11,0,0,0,5,11,,
1006,h9c571e7gv,BB,backward,2,Wednesday,Tuesday,midday,2,2,17,12222.395,Midday (noon - 6 pm),"Bright, Lee, Adam, Sam",4,0,0,4,0,0,0,0,0,,
1006,h9c571e7gv,BB,backward,2,Wednesday,Tuesday,morning,2,2,18,11398.285,Morning (until noon),"Briick, DeTulleo, Kane, Adam",4,0,0,4,0,0,0,0,0,,
1006,h9c571e7gv,BB,backward,2,Wednesday,Monday,evening,3,3,19,19278.5,Evening (after 6 pm),"Sam, Bright, Lee, Ryan, Adam",5,5,0,5,0,0,0,0,5,,
1006,h9c571e7gv,BB,backward,2,Wednesday,Monday,midday,3,3,20,11838.44,Midday (noon - 6 pm),"Bright, Sam, Adam",3,0,0,3,0,0,0,0,0,,
1006,h9c571e7gv,BB,backward,2,Wednesday,Monday,morning,3,3,21,10214.635,Morning (until noon),"Bright, Sam, Adam, Lee",4,0,0,4,0,0,0,0,0,,
1006,h9c571e7gv,BB,backward,2,Wednesday,Sunday,evening,4,4,22,13502.305,Evening (after 6 pm),"Bright, Sam, Adam",3,3,0,3,0,0,0,0,3,,
1006,h9c571e7gv,BB,backward,2,Wednesday,Sunday,midday,4,4,23,8806.345,Midday (noon - 6 pm),"Bright, Sam, Adam, lee",4,1,0,4,0,0,0,0,1,,
1006,h9c571e7gv,BB,backward,2,Wednesday,Sunday,morning,4,4,24,6558.325,Morning (until noon),Boast,1,0,0,1,0,0,0,0,0,,
1007,hwq5a5fd8c,BF,backward,1,Tuesday,Tuesday,evening,1,1,1,14533.495,Evening (after 6 pm),"Patrick Thornton, Seth Collins ",2,2,2,2,0,0,0,2,2,,
1007,hwq5a5fd8c,BF,backward,1,Tuesday,Tuesday,midday,1,1,2,9861.51,Midday (noon - 6 pm),Seth Collins,3,3,3,1,0,0,0,3,3,,
1007,hwq5a5fd8c,BF,backward,1,Tuesday,Tuesday,morning,1,1,3,7074.56,Morning (until noon),No one,0,0,0,0,0,0,0,0,0,,
1007,hwq5a5fd8c,BF,backward,1,Tuesday,Monday,evening,2,2,4,22391.93,Evening (after 6 pm),"Reuben Sathievelu, Catarino Martinez, Dhriv Shah, Brandon Han",4,4,4,4,0,0,0,4,4,,
1007,hwq5a5fd8c,BF,backward,1,Tuesday,Monday,midday,2,2,5,8987.41,Midday (noon - 6 pm),"Brandon Han, Dhruv Shah",2,0,0,2,0,0,0,0,0,,
1007,hwq5a5fd8c,BF,backward,1,Tuesday,Monday,morning,2,2,6,5506.655,Morning (until noon),Seth Collins,1,0,0,1,0,0,0,0,0,,
1007,hwq5a5fd8c,BF,backward,1,Tuesday,Sunday,evening,3,3,7,11180.42,Evening (after 6 pm),Reuben Sathievelu,1,1,1,1,0,0,0,1,1,,
1007,hwq5a5fd8c,BF,backward,1,Tuesday,Sunday,midday,3,3,8,14905.455,Midday (noon - 6 pm),"Dhruv Shah, Evan Preston",2,1,1,2,0,0,0,1,1,,
1007,hwq5a5fd8c,BF,backward,1,Tuesday,Sunday,morning,3,3,9,8298.46,Morning (until noon),No one,0,0,0,0,0,0,0,0,0,,
1007,hwq5a5fd8c,BF,backward,1,Tuesday,Saturday,evening,4,4,10,13026.09,Evening (after 6 pm),"John Slubowski, Bart Szuemiec ",2,2,2,2,0,0,0,2,2,,
1007,hwq5a5fd8c,BF,backward,1,Tuesday,Saturday,midday,4,4,11,40989.46,Midday (noon - 6 pm),"Reuben Sathievelu, Brandon Han, Dhruv Shah, Catarino Martinez, Christian Ramierez",5,3,1,5,0,0,0,1,3,,
1007,hwq5a5fd8c,BF,backward,1,Tuesday,Saturday,morning,4,4,12,5794.71,Morning (until noon),No one,0,0,0,0,0,0,0,0,0,,
1007,hwq5a5fd8c,BF,forward,2,Tuesday,Saturday,morning,4,1,13,9046.835,Morning (until noon),Seth Collins,1,1,0,1,0,0,0,0,1,,
1007,hwq5a5fd8c,BF,forward,2,Tuesday,Saturday,midday,4,1,14,14994.415,Midday (noon - 6 pm),"Dhruv Shah, Brandon Han, Reuben Sathievelu",3,2,0,3,0,0,0,0,2,,
1007,hwq5a5fd8c,BF,forward,2,Tuesday,Saturday,evening,4,1,15,16183.045,Evening (after 6 pm),"Catarino Martinez, Brandon Han, Dhruv Shah ",3,0,0,3,0,0,0,0,0,,
1007,hwq5a5fd8c,BF,forward,2,Tuesday,Sunday,morning,3,2,16,13226.75,Morning (until noon),"John Slubowski, Bart Szumiec",2,2,0,2,0,0,0,0,2,,
1007,hwq5a5fd8c,BF,forward,2,Tuesday,Sunday,midday,3,2,17,9120.53,Midday (noon - 6 pm),Reuben Sathievelu,1,0,0,1,0,0,0,0,0,,
1007,hwq5a5fd8c,BF,forward,2,Tuesday,Sunday,evening,3,2,18,11514.92,Evening (after 6 pm),Seth Collins,1,0,0,1,0,0,0,0,0,,
1007,hwq5a5fd8c,BF,forward,2,Tuesday,Monday,morning,2,3,19,11606.52,Morning (until noon),"Patrick Thornton, Seth Collins",2,2,0,2,0,0,0,0,2,,
1007,hwq5a5fd8c,BF,forward,2,Tuesday,Monday,midday,2,3,20,5901.71,Midday (noon - 6 pm),no one,0,0,0,0,0,0,0,0,0,,
1007,hwq5a5fd8c,BF,forward,2,Tuesday,Monday,evening,2,3,21,14349.79,Evening (after 6 pm),"Brandon Han, Reuben Sathievelu",2,0,0,2,0,0,0,0,0,,
1007,hwq5a5fd8c,BF,forward,2,Tuesday,Tuesday,morning,1,4,22,8605.175,Morning (until noon),Seth Collins,1,1,0,1,0,0,0,0,1,,
1007,hwq5a5fd8c,BF,forward,2,Tuesday,Tuesday,midday,1,4,23,6003.4,Midday (noon - 6 pm),no one,0,0,0,0,0,0,0,0,0,,
1007,hwq5a5fd8c,BF,forward,2,Tuesday,Tuesday,evening,1,4,24,9373.33,Evening (after 6 pm),has not happened yet,0,0,0,0,0,0,0,0,0,,
1008,lmdjdgmwyg,FF,forward,1,Tuesday,Saturday,morning,1,4,1,14418.21,Morning (until noon),"mom, dad",2,2,2,2,0,0,0,2,2,,
1008,lmdjdgmwyg,FF,forward,1,Tuesday,Saturday,midday,1,4,2,102991.61,Midday (noon - 6 pm),people in the movie theater and in the shopping mall,2,2,2,0,2,2,2,0,0,y,
1008,lmdjdgmwyg,FF,forward,1,Tuesday,Saturday,evening,1,4,3,10823.495,Evening (after 6 pm),no one,11,11,11,0,0,0,0,11,11,,
1008,lmdjdgmwyg,FF,forward,1,Tuesday,Sunday,morning,2,3,4,15552.485,Morning (until noon),people in the park,2,2,2,0,2,2,2,0,0,y,
1008,lmdjdgmwyg,FF,forward,1,Tuesday,Sunday,midday,2,3,5,44580.08,Midday (noon - 6 pm),people in noodle restaurant,2,2,2,0,2,2,2,0,0,y,
1008,lmdjdgmwyg,FF,forward,1,Tuesday,Sunday,evening,2,3,6,52864.425,Evening (after 6 pm),ten relatives eating together in a restaurant for dinner,10,10,10,10,0,0,0,10,10,,
1008,lmdjdgmwyg,FF,forward,1,Tuesday,Monday,morning,3,2,7,9479.45,Morning (until noon),"mom, dad",2,0,0,2,0,0,0,0,0,,
1008,lmdjdgmwyg,FF,forward,1,Tuesday,Monday,midday,3,2,8,10825.79,Midday (noon - 6 pm),no one,0,0,0,0,0,0,0,0,0,,
1008,lmdjdgmwyg,FF,forward,1,Tuesday,Monday,evening,3,2,9,12045.45,Evening (after 6 pm),people in the KTV,2,2,2,0,2,2,2,0,0,y,
1008,lmdjdgmwyg,FF,forward,1,Tuesday,Tuesday,morning,4,1,10,4062.295,Morning (until noon),no one,0,0,0,0,0,0,0,0,0,,
1008,lmdjdgmwyg,FF,forward,1,Tuesday,Tuesday,midday,4,1,11,7359.285,Midday (noon - 6 pm),no one,0,0,0,0,0,0,0,0,0,,
1008,lmdjdgmwyg,FF,forward,1,Tuesday,Tuesday,evening,4,1,12,3101.805,Evening (after 6 pm),no one,0,0,0,0,0,0,0,0,0,,
1008,lmdjdgmwyg,FF,forward,2,Tuesday,Saturday,morning,1,4,13,36902.795,Morning (until noon),"mom, dad",2,2,0,2,0,0,0,0,2,,
1008,lmdjdgmwyg,FF,forward,2,Tuesday,Saturday,midday,1,4,14,16795.125,Midday (noon - 6 pm),friends from middle school,2,2,2,0,2,2,2,0,0,y,
1008,lmdjdgmwyg,FF,forward,2,Tuesday,Saturday,evening,1,4,15,20452.83,Evening (after 6 pm),people in the movie theater and shopping mall,2,0,0,0,0,0,0,0,0,y,
1008,lmdjdgmwyg,FF,forward,2,Tuesday,Sunday,morning,2,3,16,14206.77,Morning (until noon),"mom, dad",2,2,0,2,0,0,0,0,2,,
1008,lmdjdgmwyg,FF,forward,2,Tuesday,Sunday,midday,2,3,17,78015.535,Midday (noon - 6 pm),no one,0,0,0,0,0,0,0,0,0,,
1008,lmdjdgmwyg,FF,forward,2,Tuesday,Sunday,evening,2,3,18,5934.62,Evening (after 6 pm),people in the KTV,2,0,0,0,2,0,0,0,0,y,
1008,lmdjdgmwyg,FF,forward,2,Tuesday,Monday,morning,3,2,19,6325.74,Morning (until noon),people in the park,2,2,0,0,2,0,0,0,2,y,
1008,lmdjdgmwyg,FF,forward,2,Tuesday,Monday,midday,3,2,20,18282.045,Midday (noon - 6 pm),people in the noodle restaurant,2,0,0,0,2,0,0,0,0,y,
1008,lmdjdgmwyg,FF,forward,2,Tuesday,Monday,evening,3,2,21,7062.76,Evening (after 6 pm),ten relatives,10,8,0,10,0,0,0,0,8,,
1008,lmdjdgmwyg,FF,forward,2,Tuesday,Tuesday,morning,4,1,22,2687.165,Morning (until noon),no one,0,0,0,0,0,0,0,0,0,,
1008,lmdjdgmwyg,FF,forward,2,Tuesday,Tuesday,midday,4,1,23,3771.95,Midday (noon - 6 pm),no one,0,0,0,0,0,0,0,0,0,,
1008,lmdjdgmwyg,FF,forward,2,Tuesday,Tuesday,evening,4,1,24,2342.285,Evening (after 6 pm),no one,0,0,0,0,0,0,0,0,0,,
1009,mcesdtgj7m,FF,forward,1,Wednesday,Sunday,morning,1,4,1,43426.67,Morning (until noon),My roommates,2,2,2,2,0,0,0,2,2,y,
1009,mcesdtgj7m,FF,forward,1,Wednesday,Sunday,midday,1,4,2,10530.18,Midday (noon - 6 pm),roommates,2,2,2,2,0,0,0,2,2,y,
1009,mcesdtgj7m,FF,forward,1,Wednesday,Sunday,evening,1,4,3,9413.055,Evening (after 6 pm),roommates,2,1,1,2,0,0,0,1,1,y,
1009,mcesdtgj7m,FF,forward,1,Wednesday,Monday,morning,2,3,4,17668.685,Morning (until noon),Roommates and friends,2,2,2,2,0,0,0,2,2,y,
1009,mcesdtgj7m,FF,forward,1,Wednesday,Monday,midday,2,3,5,5944.155,Midday (noon - 6 pm),roommates and friends ,2,0,0,2,0,0,0,0,0,y,
1009,mcesdtgj7m,FF,forward,1,Wednesday,Monday,evening,2,3,6,8955.515,Evening (after 6 pm),roommates,2,0,0,2,0,0,0,0,0,y,
1009,mcesdtgj7m,FF,forward,1,Wednesday,Tuesday,morning,3,2,7,10036.255,Morning (until noon),roommates,2,2,0,2,0,0,0,0,2,y,
1009,mcesdtgj7m,FF,forward,1,Wednesday,Tuesday,midday,3,2,8,16324.265,Midday (noon - 6 pm),big friend group,2,2,2,2,0,0,0,2,2,y,
1009,mcesdtgj7m,FF,forward,1,Wednesday,Tuesday,evening,3,2,9,6639.845,Evening (after 6 pm),friend group,2,0,0,2,0,0,0,0,0,y,
1009,mcesdtgj7m,FF,forward,1,Wednesday,Wednesday,morning,4,1,10,7996.885,Morning (until noon),roommates,2,2,0,2,0,0,0,0,2,y,
1009,mcesdtgj7m,FF,forward,1,Wednesday,Wednesday,midday,4,1,11,11092.795,Midday (noon - 6 pm),roommates,2,0,0,2,0,0,0,0,0,y,
1009,mcesdtgj7m,FF,forward,1,Wednesday,Wednesday,evening,4,1,12,4513.01,Evening (after 6 pm),roommates,2,0,0,2,0,0,0,0,0,y,
1009,mcesdtgj7m,FF,forward,2,Wednesday,Sunday,morning,1,4,13,7871.245,Morning (until noon),roommates,2,2,0,2,0,0,0,0,2,y,
1009,mcesdtgj7m,FF,forward,2,Wednesday,Sunday,midday,1,4,14,4003.69,Midday (noon - 6 pm),roommates,2,0,0,2,0,0,0,0,0,y,
1009,mcesdtgj7m,FF,forward,2,Wednesday,Sunday,evening,1,4,15,3623.2,Evening (after 6 pm),roommates,2,0,0,2,0,0,0,0,0,y,
1009,mcesdtgj7m,FF,forward,2,Wednesday,Monday,morning,2,3,16,22917.465,Morning (until noon),roommates,2,2,0,2,0,0,0,0,2,y,
1009,mcesdtgj7m,FF,forward,2,Wednesday,Monday,midday,2,3,17,3294.755,Midday (noon - 6 pm),roommates,2,0,0,2,0,0,0,0,0,y,
1009,mcesdtgj7m,FF,forward,2,Wednesday,Monday,evening,2,3,18,3638.86,Evening (after 6 pm),roommates,2,0,0,2,0,0,0,0,0,y,
1009,mcesdtgj7m,FF,forward,2,Wednesday,Tuesday,morning,3,2,19,5190.73,Morning (until noon),roommates,2,2,0,2,0,0,0,0,2,y,
1009,mcesdtgj7m,FF,forward,2,Wednesday,Tuesday,midday,3,2,20,4041.65,Midday (noon - 6 pm),roommates,2,0,0,2,0,0,0,0,0,y,
1009,mcesdtgj7m,FF,forward,2,Wednesday,Tuesday,evening,3,2,21,3822.995,Evening (after 6 pm),roommates,2,0,0,2,0,0,0,0,0,y,
1009,mcesdtgj7m,FF,forward,2,Wednesday,Wednesday,morning,4,1,22,3022.375,Morning (until noon),roommates,2,2,0,2,0,0,0,0,2,y,
1009,mcesdtgj7m,FF,forward,2,Wednesday,Wednesday,midday,4,1,23,3569.98,Midday (noon - 6 pm),roommates,2,0,0,2,0,0,0,0,0,y,
1009,mcesdtgj7m,FF,forward,2,Wednesday,Wednesday,evening,4,1,24,5231.55,Evening (after 6 pm),roommates,2,0,0,2,0,0,0,0,0,y,
1010,me9x82bdvp,BF,backward,1,Wednesday,Wednesday,evening,1,1,1,12279.03,Evening (after 6 pm),"mother, brother, father",3,3,3,3,0,0,0,3,3,,
1010,me9x82bdvp,BF,backward,1,Wednesday,Wednesday,midday,1,1,2,10664.75,Midday (noon - 6 pm),"mother, brother",3,3,3,2,0,0,0,3,3,,
1010,me9x82bdvp,BF,backward,1,Wednesday,Wednesday,morning,1,1,3,6392.63,Morning (until noon),"mother, brother",2,1,1,2,0,0,0,1,1,,
1010,me9x82bdvp,BF,backward,1,Wednesday,Tuesday,evening,2,2,4,10386.575,Evening (after 6 pm),"mother, brother, father",3,3,0,3,0,0,0,0,3,,
1010,me9x82bdvp,BF,backward,1,Wednesday,Tuesday,midday,2,2,5,9433.865,Midday (noon - 6 pm),"mother, brother",2,1,1,2,0,0,0,1,1,,
1010,me9x82bdvp,BF,backward,1,Wednesday,Tuesday,morning,2,2,6,7089.58,Morning (until noon),"mother, brother",2,0,0,2,0,0,0,0,0,,
1010,me9x82bdvp,BF,backward,1,Wednesday,Monday,evening,3,3,7,10788.67,Evening (after 6 pm),"mother, brother, father",3,3,0,3,0,0,0,0,3,,
1010,me9x82bdvp,BF,backward,1,Wednesday,Monday,midday,3,3,8,17672.31,Midday (noon - 6 pm),"mother, father, brother",3,0,0,3,0,0,0,0,0,,
1010,me9x82bdvp,BF,backward,1,Wednesday,Monday,morning,3,3,9,7705.055,Morning (until noon),"mother, brother",2,0,0,2,0,0,0,0,0,,
1010,me9x82bdvp,BF,backward,1,Wednesday,Sunday,evening,4,4,10,7184.87,Evening (after 6 pm),"mother, father, brother",3,3,0,3,0,0,0,0,3,,
1010,me9x82bdvp,BF,backward,1,Wednesday,Sunday,midday,4,4,11,21109.04,Midday (noon - 6 pm),"mother, father, brother, grocery store employees",5,2,2,3,0,0,0,2,2,y,
1010,me9x82bdvp,BF,backward,1,Wednesday,Sunday,morning,4,4,12,7725.82,Morning (until noon),"mother, brother, father",3,0,0,3,2,2,2,0,0,,
1010,me9x82bdvp,BF,forward,2,Wednesday,Sunday,morning,4,1,13,11347.33,Morning (until noon),"mother, father, brother",3,3,0,3,0,0,0,0,3,,
1010,me9x82bdvp,BF,forward,2,Wednesday,Sunday,midday,4,1,14,11266.45,Midday (noon - 6 pm),"mother, father, brother, grocery store workers",5,2,0,3,2,2,2,0,2,y,
1010,me9x82bdvp,BF,forward,2,Wednesday,Sunday,evening,4,1,15,9192.11,Evening (after 6 pm),"mother, father, brother",3,0,0,3,0,0,0,0,0,,
1010,me9x82bdvp,BF,forward,2,Wednesday,Monday,morning,3,2,16,10942.15,Morning (until noon),"mother, brother",2,2,0,2,0,0,0,0,2,,
1010,me9x82bdvp,BF,forward,2,Wednesday,Monday,midday,3,2,17,9323.455,Midday (noon - 6 pm),"mother, father, brother",3,1,0,3,0,0,0,0,1,,
1010,me9x82bdvp,BF,forward,2,Wednesday,Monday,evening,3,2,18,43485.59,Evening (after 6 pm),"mother, father, brother",3,0,0,3,0,0,0,0,0,,
1010,me9x82bdvp,BF,forward,2,Wednesday,Tuesday,morning,2,3,19,11462.765,Morning (until noon),"mother, brother",2,2,0,2,0,0,0,0,2,,
1010,me9x82bdvp,BF,forward,2,Wednesday,Tuesday,midday,2,3,20,5754.745,Midday (noon - 6 pm),"mother, brother, father",3,1,0,3,0,0,0,0,1,,
1010,me9x82bdvp,BF,forward,2,Wednesday,Tuesday,evening,2,3,21,5535.255,Evening (after 6 pm),"mother, brother, father",3,0,0,3,0,0,0,0,0,,
1010,me9x82bdvp,BF,forward,2,Wednesday,Wednesday,morning,1,4,22,4369.92,Morning (until noon),"mother, brother",2,2,0,2,0,0,0,0,2,,
1010,me9x82bdvp,BF,forward,2,Wednesday,Wednesday,midday,1,4,23,7577.405,Midday (noon - 6 pm),"mother, brother, father",3,1,0,3,0,0,0,0,1,,
1010,me9x82bdvp,BF,forward,2,Wednesday,Wednesday,evening,1,4,24,5507.185,Evening (after 6 pm),"mother, brother, father",3,0,0,3,0,0,0,0,0,,
1011,mn1t1gn6k4,BB,backward,1,Thursday,Thursday,evening,1,1,1,10481.285,Evening (after 6 pm),XX,0,0,0,0,0,0,0,0,0,,
1011,mn1t1gn6k5,BB,backward,1,Thursday,Thursday,midday,1,1,2,8346.105,Midday (noon - 6 pm),XX,0,0,0,0,0,0,0,0,0,,
1011,mn1t1gn6k6,BB,backward,1,Thursday,Thursday,morning,1,1,3,6731.765,Morning (until noon),Sophie,1,1,1,1,0,0,0,1,1,,
1011,mn1t1gn6k7,BB,backward,1,Thursday,Wednesday,evening,2,2,4,26532.615,Evening (after 6 pm),"Maddie, clerk at store",2,2,2,1,1,1,1,1,1,,
1011,mn1t1gn6k8,BB,backward,1,Thursday,Wednesday,midday,2,2,5,8000.56,Midday (noon - 6 pm),XX,0,0,0,0,0,0,0,0,0,,
1011,mn1t1gn6k9,BB,backward,1,Thursday,Wednesday,morning,2,2,6,3003.365,Morning (until noon),XX,0,0,0,0,0,0,0,0,0,,
1011,mn1t1gn6k10,BB,backward,1,Thursday,Tuesday,evening,3,3,7,9381.29,Evening (after 6 pm),XX,0,0,0,0,0,0,0,0,0,,
1011,mn1t1gn6k11,BB,backward,1,Thursday,Tuesday,midday,3,3,8,8221.88,Midday (noon - 6 pm),Sophie,1,1,1,1,0,0,0,1,1,,
1011,mn1t1gn6k12,BB,backward,1,Thursday,Tuesday,morning,3,3,9,3181.115,Morning (until noon),XX,0,0,0,0,0,0,0,0,0,,
1011,mn1t1gn6k13,BB,backward,1,Thursday,Monday,evening,4,4,10,7137.88,Evening (after 6 pm),XX,0,0,0,0,0,0,0,0,0,,
1011,mn1t1gn6k14,BB,backward,1,Thursday,Monday,midday,4,4,11,5623.475,Midday (noon - 6 pm),XX,0,0,0,0,0,0,0,0,0,,
1011,mn1t1gn6k15,BB,backward,1,Thursday,Monday,morning,4,4,12,4413.12,Morning (until noon),Sophie,1,1,0,1,0,0,0,0,1,,
1011,mn1t1gn6k16,BB,backward,2,Thursday,Thursday,evening,1,1,13,5217.51,Evening (after 6 pm),XX,0,0,0,0,0,0,0,0,0,,
1011,mn1t1gn6k17,BB,backward,2,Thursday,Thursday,midday,1,1,14,5486.425,Midday (noon - 6 pm),XX,0,0,0,0,0,0,0,0,0,,
1011,mn1t1gn6k18,BB,backward,2,Thursday,Thursday,morning,1,1,15,3207.285,Morning (until noon),Sophie,1,1,0,1,0,0,0,0,1,,
1011,mn1t1gn6k19,BB,backward,2,Thursday,Wednesday,evening,2,2,16,8518.635,Evening (after 6 pm),Maddie,1,1,1,1,0,0,0,1,1,,
1011,mn1t1gn6k20,BB,backward,2,Thursday,Wednesday,midday,2,2,17,4029.515,Midday (noon - 6 pm),XX,0,0,0,0,0,0,0,0,0,,
1011,mn1t1gn6k21,BB,backward,2,Thursday,Wednesday,morning,2,2,18,6135.66,Morning (until noon),Sophie,1,1,0,1,0,0,0,0,1,,
1011,mn1t1gn6k22,BB,backward,2,Thursday,Tuesday,evening,3,3,19,507743.385,Evening (after 6 pm),XX,0,0,0,0,0,0,0,0,0,,
1011,mn1t1gn6k23,BB,backward,2,Thursday,Tuesday,midday,3,3,20,6949.15,Midday (noon - 6 pm),XX,0,0,0,0,0,0,0,0,0,,
1011,mn1t1gn6k24,BB,backward,2,Thursday,Tuesday,morning,3,3,21,9920.595,Morning (until noon),Sophie,1,1,0,1,0,0,0,0,1,,
1011,mn1t1gn6k25,BB,backward,2,Thursday,Monday,evening,4,4,22,2925.935,Evening (after 6 pm),XX,0,0,0,0,0,0,0,0,0,,
1011,mn1t1gn6k26,BB,backward,2,Thursday,Monday,midday,4,4,23,2452.38,Midday (noon - 6 pm),XX,0,0,0,0,0,0,0,0,0,,
1011,mn1t1gn6k27,BB,backward,2,Thursday,Monday,morning,4,4,24,2014.3,Morning (until noon),XX,0,0,0,0,0,0,0,0,0,,
1012,mrapv7s9b3,BF,backward,1,Wednesday,Wednesday,evening,1,1,1,72842.235,Evening (after 6 pm),"My friends Serena, Jia and Vanesa",3,3,3,3,0,0,0,3,3,,
1012,mrapv7s9b4,BF,backward,1,Wednesday,Wednesday,midday,1,1,2,79788.55,Midday (noon - 6 pm),"Belma, George, Serena and Jia and the cashier at walgreens",5,4,4,4,1,1,1,3,3,,
1012,mrapv7s9b5,BF,backward,1,Wednesday,Wednesday,morning,1,1,3,29653.445,Morning (until noon),"Serena, Jia, Vanessa and Belma",4,2,2,4,0,0,0,2,2,,
1012,mrapv7s9b6,BF,backward,1,Wednesday,Tuesday,evening,2,2,4,31885.725,Evening (after 6 pm),"Alex, Serena, Belma, Ahtziri",4,4,3,4,0,0,0,3,4,,
1012,mrapv7s9b7,BF,backward,1,Wednesday,Tuesday,midday,2,2,5,24865.01,Midday (noon - 6 pm),"Serena, Athziri, george",3,1,1,3,0,0,0,1,1,,
1012,mrapv7s9b8,BF,backward,1,Wednesday,Tuesday,morning,2,2,6,17964.685,Morning (until noon),I am not too sure,0,0,0,0,0,0,0,0,0,,
1012,mrapv7s9b9,BF,backward,1,Wednesday,Monday,evening,3,3,7,16426.6,Evening (after 6 pm),Athziri,1,1,0,1,0,0,0,0,1,,
1012,mrapv7s9b10,BF,backward,1,Wednesday,Monday,midday,3,3,8,11480.02,Midday (noon - 6 pm),I am not too sure,0,0,0,0,0,0,0,0,0,,
1012,mrapv7s9b11,BF,backward,1,Wednesday,Monday,morning,3,3,9,12829.015,Morning (until noon),"Serena, Jia, Belma",3,2,0,3,0,0,0,0,2,,
1012,mrapv7s9b12,BF,backward,1,Wednesday,Sunday,evening,4,4,10,69971.985,Evening (after 6 pm),"Alex, Serena, Jia, Belma, Sammy",5,5,2,5,0,0,0,2,5,,
1012,mrapv7s9b13,BF,backward,1,Wednesday,Sunday,midday,4,4,11,7342.32,Midday (noon - 6 pm),I am not sure,0,0,0,0,0,0,0,0,0,,
1012,mrapv7s9b14,BF,backward,1,Wednesday,Sunday,morning,4,4,12,9486.14,Morning (until noon),No one,0,0,0,0,0,0,0,0,0,,
1012,mrapv7s9b15,BF,forward,2,Wednesday,Sunday,morning,4,1,13,22995.555,Morning (until noon),"Serena, Jia, Belma, Vanessa",4,4,0,4,0,0,0,0,4,,
1012,mrapv7s9b16,BF,forward,2,Wednesday,Sunday,midday,4,1,14,17773.8,Midday (noon - 6 pm),"Serena, Belma, George, Ahtziri",4,0,0,4,0,0,0,0,0,,
1012,mrapv7s9b17,BF,forward,2,Wednesday,Sunday,evening,4,1,15,52257.845,Evening (after 6 pm),"Alex, Belma, George, Serena, Jia, Vanessa",6,2,2,6,0,0,0,2,2,,
1012,mrapv7s9b18,BF,forward,2,Wednesday,Monday,morning,3,2,16,19706,Morning (until noon),"Serena, Jia, Belma, Vanessa",4,4,0,4,0,0,0,0,4,,
1012,mrapv7s9b19,BF,forward,2,Wednesday,Monday,midday,3,2,17,42269.965,Midday (noon - 6 pm),"athziri, george, jack",3,0,1,3,0,0,0,1,0,,
1012,mrapv7s9b20,BF,forward,2,Wednesday,Monday,evening,3,2,18,27480.45,Evening (after 6 pm),"alex, serena, jia, belma, sammy",5,0,0,5,0,0,0,0,0,,
1012,mrapv7s9b21,BF,forward,2,Wednesday,Tuesday,morning,2,3,19,6620.145,Morning (until noon),i am not sure,0,0,0,0,0,0,0,0,0,,
1012,mrapv7s9b22,BF,forward,2,Wednesday,Tuesday,midday,2,3,20,26031.875,Midday (noon - 6 pm),"George, Athziri, belma, serena, jia",5,5,0,5,0,0,0,0,5,,
1012,mrapv7s9b23,BF,forward,2,Wednesday,Tuesday,evening,2,3,21,26804.8,Evening (after 6 pm),"serena, alex, belma, jia, ahtziri, sammy",6,1,1,6,0,0,0,1,1,,
1012,mrapv7s9b24,BF,forward,2,Wednesday,Wednesday,morning,1,4,22,10754.205,Morning (until noon),"belma, serena, jia, vanessa",4,4,0,4,0,0,0,0,4,,
1012,mrapv7s9b25,BF,forward,2,Wednesday,Wednesday,midday,1,4,23,41871.625,Midday (noon - 6 pm),"Vanessa, Jia, belma, serena",4,0,0,4,0,0,0,0,0,,
1012,mrapv7s9b26,BF,forward,2,Wednesday,Wednesday,evening,1,4,24,61938,Evening (after 6 pm),"Alex, felipe, serena, ahtziri, jia",5,1,1,5,0,0,0,1,1,,
1013,nypype3c0e,BB,backward,1,Monday,Monday,evening,1,1,1,34441.265,Evening (after 6 pm),It isn't yet 6pm today,0,0,0,0,0,0,0,0,0,,
1013,nypype3c0e,BB,backward,1,Monday,Monday,midday,1,1,2,122139.085,Midday (noon - 6 pm),"Nishta, Nupur, Rishitaa , Manan, Teju, Tanishq, The woman at the library check-out desk, The girl at the covid testing site",8,8,8,6,2,2,2,6,6,,
1013,nypype3c0e,BB,backward,1,Monday,Monday,morning,1,1,3,36316.69,Morning (until noon),"Rishitaa , Manan, Nidhi, Tanishq",4,3,3,4,0,0,0,3,3,,
1013,nypype3c0e,BB,backward,1,Monday,Sunday,evening,2,2,4,90443.985,Evening (after 6 pm),"Nupur, Nishta, Nidhi, Rishitaa, Manan, Teju, Tanishq, Sophie, Avi",9,9,4,9,0,0,0,4,9,,
1013,nypype3c0e,BB,backward,1,Monday,Sunday,midday,2,2,5,68797.015,Midday (noon - 6 pm),"Avi, Manan , Rishitaa, Nupur, Nishta, Nidhi, The girl at 57 north",7,2,1,6,1,1,1,0,1,,
1013,nypype3c0e,BB,backward,1,Monday,Sunday,morning,2,2,6,124160.105,Morning (until noon),"Nupur, Nishta, Nidhi",3,0,0,3,0,0,0,0,0,,
1013,nypype3c0e,BB,backward,1,Monday,Saturday,evening,3,3,7,89677.39,Evening (after 6 pm),"Manan, Avi , Rishitaa, Nithika, Nupur , Nishta, Teju",7,7,2,7,0,0,0,2,7,,
1013,nypype3c0e,BB,backward,1,Monday,Saturday,midday,3,3,8,25633.56,Midday (noon - 6 pm),"Tanishq, Teju, Nidhi, Vivek",4,0,1,4,0,0,0,1,0,,
1013,nypype3c0e,BB,backward,1,Monday,Saturday,morning,3,3,9,23763.84,Morning (until noon),"Tanishq , Teju, Vivek",3,0,0,3,0,0,0,0,0,,
1013,nypype3c0e,BB,backward,1,Monday,Friday,evening,4,4,10,119305.79,Evening (after 6 pm),"Tanishq, Teju, Nidhi, Nakul, Ved, Vaasay, Athish, Anish, Miraj, Manan, Rishitaa, Nupur, Nishta, Snigdha, Vivek, Purvansh, the girl at the bowling alley, the man at the bowling alley, the girl at krannert",19,19,10,16,3,3,3,7,16,,
1013,nypype3c0e,BB,backward,1,Monday,Friday,midday,4,4,11,150372.555,Midday (noon - 6 pm),"Nupur , Nishta, Rishitaa, Nidhi, Teju, Nakul, Tanishq",7,0,0,7,0,0,0,0,0,,
1013,nypype3c0e,BB,backward,1,Monday,Friday,morning,4,4,12,40208.45,Morning (until noon),"Teju, Tanishq, Nakul, Nidhi, Nupur, Nishta",6,0,0,6,0,0,0,0,0,,
1013,nypype3c0e,BB,backward,2,Monday,Monday,evening,1,1,13,11311.3,Evening (after 6 pm),Not yet 6pm today,0,0,0,0,0,0,0,0,0,,
1013,nypype3c0e,BB,backward,2,Monday,Monday,midday,1,1,14,44633.71,Midday (noon - 6 pm),"Nishta, Nupur, Rishitaa , Manan, Tanishq, Teju, the woman at the library check-out desk",7,7,0,6,1,0,1,0,6,,
1013,nypype3c0e,BB,backward,2,Monday,Monday,morning,1,1,15,32047.435,Morning (until noon),"Rishitaa, Manan, Nidhi, Tanishq",4,0,0,4,0,0,0,0,0,,
1013,nypype3c0e,BB,backward,2,Monday,Sunday,evening,2,2,16,33104.52,Evening (after 6 pm),"Tanishq, Teju, Sophie, Jack, Manan, Rishitaa, Nupur, Nishta, Nidhi, Avi",10,10,1,10,0,0,0,1,10,,
1013,nypype3c0e,BB,backward,2,Monday,Sunday,midday,2,2,17,59725.46,Midday (noon - 6 pm),"Avi, Manan, Rishitaa, Nupur, Nishta, Nidhi, the guy while I was doing laundry (Sean?), Tanishq, the girl at 57",9,0,1,7,2,1,0,0,0,,
1013,nypype3c0e,BB,backward,2,Monday,Sunday,morning,2,2,18,126572.845,Morning (until noon),"Nupur , Nishta, Nidhi",3,0,0,3,0,0,0,0,0,,
1013,nypype3c0e,BB,backward,2,Monday,Saturday,evening,3,3,19,21907.91,Evening (after 6 pm),"Teju, Nupur, Nishta, Manan, Rishitaa, Avi",6,6,0,6,0,0,0,0,6,,
1013,nypype3c0e,BB,backward,2,Monday,Saturday,midday,3,3,20,10775.525,Midday (noon - 6 pm),"Tanishq, Nidhi, Teju",3,0,0,3,0,0,0,0,0,,
1013,nypype3c0e,BB,backward,2,Monday,Saturday,morning,3,3,21,37287.905,Morning (until noon),"Vivek, Tanishq , Teju, the person at the covid testing site",4,0,0,3,1,0,0,0,0,,
1013,nypype3c0e,BB,backward,2,Monday,Friday,evening,4,4,22,109307.9,Evening (after 6 pm),"Nakul, Ved, Vaasay, Purvansh, Rishitaa, Manan, Nidhi, Teju, Nupur, Nishta , the girl at the bowling alley, the guy at the bowling alley, Athish, Anish, Miraj, Tanishq, Vivek",17,17,0,15,2,0,2,0,15,,
1013,nypype3c0e,BB,backward,2,Monday,Friday,midday,4,4,23,22426.38,Midday (noon - 6 pm),"Nupur, Nishta, Nidhi, Teju",4,0,0,4,0,0,0,0,0,,
1013,nypype3c0e,BB,backward,2,Monday,Friday,morning,4,4,24,31635.19,Morning (until noon),"Nupur, Nishta",2,0,0,2,0,0,0,0,0,,
1014,oeyr42mel4,FF,forward,1,Monday,Friday,morning,1,4,1,32076.305,Morning (until noon),"Aaron, Bryson, Bennett, Lili , Alex, Mother",6,6,6,6,0,0,0,6,6,,
1014,oeyr42mel5,FF,forward,1,Monday,Friday,midday,1,4,2,52239.85,Midday (noon - 6 pm),"Bennett, Bryson, Aaron, Finn, Finn's mother, Miran, Grandpa, Grandma, Lili, Alex , Mother, Peter",12,9,9,12,0,0,0,9,9,,
1014,oeyr42mel6,FF,forward,1,Monday,Friday,evening,1,4,3,34183.29,Evening (after 6 pm),"Grandma, Grandpa, Pete, Lili, Alex, guy at the gas station, Mother, Joel",8,3,3,7,1,1,1,2,2,,
1014,oeyr42mel7,FF,forward,1,Monday,Saturday,morning,2,3,4,12550.755,Morning (until noon),"Mother, Lili, Alex",3,3,0,3,0,0,0,0,3,,
1014,oeyr42mel8,FF,forward,1,Monday,Saturday,midday,2,3,5,66358.78,Midday (noon - 6 pm),"Lili , Alex, Mother, Joel, Sales Clerk at American Eagle , Sales Clerk at PINK, Sales Clerk at PINK at register, Sales Clerk at Forever 21, Sales Associate at target, Lady at target in the cleaning aisle",10,7,6,4,6,6,6,0,1,,
1014,oeyr42mel9,FF,forward,1,Monday,Saturday,evening,2,3,6,10812.155,Evening (after 6 pm),"Joel , Mom, Lili, Alex ",4,0,0,4,0,0,0,0,0,,
1014,oeyr42mel10,FF,forward,1,Monday,Sunday,morning,3,2,7,42883.425,Morning (until noon),"Priest, Mother, Lili, Alex, Grandma , Grandpa, Pete, Usher at Church",8,8,2,7,1,1,1,1,7,,
1014,oeyr42mel11,FF,forward,1,Monday,Sunday,midday,3,2,8,61704.06,Midday (noon - 6 pm),"Leo, The sales associate at Marshalls, Lili, Alex, Mother, Joel, Grandpa , Grandma, Pete, Uncle Michael, Tía Teresa, Alyse, Mikey, ",13,5,5,12,1,1,1,4,4,,
1014,oeyr42mel12,FF,forward,1,Monday,Sunday,evening,3,2,9,15809.295,Evening (after 6 pm),"Leo, Lili , Alex, Joel, Mom",5,0,0,5,0,0,0,0,0,,
1014,oeyr42mel13,FF,forward,1,Monday,Monday,morning,4,1,10,35506.49,Morning (until noon),"Lili , Mother, Bennett, Bryson, Karen, Aaron , ",6,6,1,6,0,0,0,1,6,,
1014,oeyr42mel14,FF,forward,1,Monday,Monday,midday,4,1,11,21588.07,Midday (noon - 6 pm),"Bennett, Bryson, Aaron , lili , alex , joel ",6,0,0,6,0,0,0,0,0,,
1014,oeyr42mel15,FF,forward,1,Monday,Monday,evening,4,1,12,11600.3,Evening (after 6 pm),"Lili , Alex, Mom, Joel",4,0,0,4,0,0,0,0,0,,
1014,oeyr42mel16,FF,forward,2,Monday,Friday,morning,1,4,13,30781.625,Morning (until noon),"Lili , Alex, Mother, Aaron, Bryson, Bennett",6,6,0,6,0,0,0,0,6,,
1014,oeyr42mel17,FF,forward,2,Monday,Friday,midday,1,4,14,47714.335,Midday (noon - 6 pm),"Bennett , Bryson, Finn, Finn's mom, Miran, Aaron, Grandma, Grandpa, Pete, Mother, Lili, Alex",12,6,1,12,0,0,0,1,6,,
1014,oeyr42mel18,FF,forward,2,Monday,Friday,evening,1,4,15,13995.83,Evening (after 6 pm),"Mom, lili, alex, joel",4,0,0,4,0,0,0,0,0,,
1014,oeyr42mel19,FF,forward,2,Monday,Saturday,morning,2,3,16,12269.885,Morning (until noon),"Mother, Lili, Alex",3,3,0,3,0,0,0,0,3,,
1014,oeyr42mel20,FF,forward,2,Monday,Saturday,midday,2,3,17,161141.85,Midday (noon - 6 pm),"American Eagle sales clerk, American eagle sales clerk at the register, American Eagle sales clerk at the door, Mom, Lili, Alex, PINK associate at the door, Pink associate at the register, Forever 21 associate at the register, Sweet stop girl with bob at register, Sweet stop owner at register, Target employee with carts, Lady in the cleaning aisle, Target employee at the register",14,11,11,3,11,7,11,4,0,,
1014,oeyr42mel21,FF,forward,2,Monday,Saturday,evening,2,3,18,9561.865,Evening (after 6 pm),"Mom, Lili, Alex, Joel",4,0,0,4,0,0,0,0,0,,
1014,oeyr42mel22,FF,forward,2,Monday,Sunday,morning,3,2,19,34856.925,Morning (until noon),"Priest, Usher, Mom, Lili, Alex, Grandma, Grandpa, Pete",8,8,0,7,1,0,0,0,8,,
1014,oeyr42mel23,FF,forward,2,Monday,Sunday,midday,3,2,20,73860.79,Midday (noon - 6 pm),"Leo, MArshals clerk with carts, lady looking at the men's clothing by me wearing athleisure, Marshals clerk at the register, Mom, Lili, Alex , Joel , Grandpa, Grandma, Tía Teresa, Mikey , Alyse, Pete",14,6,3,9,3,1,1,2,5,,
1014,oeyr42mel24,FF,forward,2,Monday,Sunday,evening,3,2,21,9094.895,Evening (after 6 pm),"Leo , mom, Lili, Alex , Joel",5,0,0,5,0,0,0,0,0,,
1014,oeyr42mel25,FF,forward,2,Monday,Monday,morning,4,1,22,30615.725,Morning (until noon),"Lili, Mom, Aaron, Karen, Bennett, bryson",6,6,0,6,0,0,0,0,6,,
1014,oeyr42mel26,FF,forward,2,Monday,Monday,midday,4,1,23,17729.955,Midday (noon - 6 pm),"Bennett, Bryson, Lili, Alex, Joel , Aaron",6,0,0,6,0,0,0,0,0,,
1014,oeyr42mel27,FF,forward,2,Monday,Monday,evening,4,1,24,13771.145,Evening (after 6 pm),"Mom, lili, Alex, Joel ",4,0,0,4,0,0,0,0,0,,
1015,oky9m2khn5,BB,backward,1,Sunday,Sunday,evening,1,1,1,25802.165,Evening (after 6 pm),"Emily H, Marissa A, Jade O",5,5,5,3,0,0,0,5,5,,
1015,oky9m2khn6,BB,backward,1,Sunday,Sunday,midday,1,1,2,29990.765,Midday (noon - 6 pm),"Jasmine O, Jordan G, ",2,2,2,2,0,0,0,2,2,,
1015,oky9m2khn7,BB,backward,1,Sunday,Sunday,morning,1,1,3,6158.51,Morning (until noon),XX,0,0,0,0,0,0,0,0,0,,
1015,oky9m2khn8,BB,backward,1,Sunday,Saturday,evening,2,2,4,18505.89,Evening (after 6 pm),"Jade O, Emily H, Marissa A, ",3,3,0,3,0,0,0,0,3,,
1015,oky9m2khn9,BB,backward,1,Sunday,Saturday,midday,2,2,5,37159.66,Midday (noon - 6 pm),"Carla A, Amy C, Whitney H",3,3,3,3,0,0,0,3,3,,
1015,oky9m2khn10,BB,backward,1,Sunday,Saturday,morning,2,2,6,5063.815,Morning (until noon),XX,0,0,0,0,0,0,0,0,0,,
1015,oky9m2khn11,BB,backward,1,Sunday,Friday,evening,3,3,7,20556.88,Evening (after 6 pm),"Andy G, Marissa A, Jade O",3,3,1,3,0,0,0,1,3,,
1015,oky9m2khn12,BB,backward,1,Sunday,Friday,midday,3,3,8,34582.245,Midday (noon - 6 pm),"Bethani H, Carla A, Amy C, Amanda H, ",4,2,2,4,0,0,0,2,2,,
1015,oky9m2khn13,BB,backward,1,Sunday,Friday,morning,3,3,9,14418.355,Morning (until noon),Kai K,1,1,1,1,0,0,0,1,1,,
1015,oky9m2khn14,BB,backward,1,Sunday,Thursday,evening,4,4,10,58541.07,Evening (after 6 pm),"Andy G, Alex M, Alec G, Emily H, Jade O, Marissa A",6,6,2,6,0,0,0,2,6,,
1015,oky9m2khn15,BB,backward,1,Sunday,Thursday,midday,4,4,11,6154.41,Midday (noon - 6 pm),XX,0,0,0,0,0,0,0,0,0,,
1015,oky9m2khn16,BB,backward,1,Sunday,Thursday,morning,4,4,12,6548.28,Morning (until noon),XX,0,0,0,0,0,0,0,0,0,,
1015,oky9m2khn17,BB,backward,2,Sunday,Sunday,evening,1,1,13,24783.495,Evening (after 6 pm),"Marissa A, Jade O, Emily H , ",3,3,0,3,0,0,0,0,3,,
1015,oky9m2khn18,BB,backward,2,Sunday,Sunday,midday,1,1,14,17730.62,Midday (noon - 6 pm),"Jordan G, Jasmine O, ",2,1,1,2,0,0,0,1,1,,
1015,oky9m2khn19,BB,backward,2,Sunday,Sunday,morning,1,1,15,4295.05,Morning (until noon),XX,0,0,0,0,0,0,0,0,0,,
1015,oky9m2khn20,BB,backward,2,Sunday,Saturday,evening,2,2,16,63616.375,Evening (after 6 pm),"Marissa A, Jade O, Kiy S, Aaron K",4,4,2,4,0,0,0,2,4,,
1015,oky9m2khn21,BB,backward,2,Sunday,Saturday,midday,2,2,17,33168.165,Midday (noon - 6 pm),"Amy C, Carla A, Whitney H, ",3,0,0,3,0,0,0,0,0,,
1015,oky9m2khn22,BB,backward,2,Sunday,Saturday,morning,2,2,18,5442.065,Morning (until noon),XX,0,0,0,0,0,0,0,0,0,,
1015,oky9m2khn23,BB,backward,2,Sunday,Friday,evening,3,3,19,41612.405,Evening (after 6 pm),"Andy G, Marissa A, Jade O, Emily H",4,4,0,4,0,0,0,0,4,,
1015,oky9m2khn24,BB,backward,2,Sunday,Friday,midday,3,3,20,27070.145,Midday (noon - 6 pm),"Amy C, Amanda H, Carla A, Bethani H, ",4,0,0,4,0,0,0,0,0,,
1015,oky9m2khn25,BB,backward,2,Sunday,Friday,morning,3,3,21,29496.67,Morning (until noon),"Josh L, Andy G, ",2,0,1,2,0,0,0,1,0,,
1015,oky9m2khn26,BB,backward,2,Sunday,Thursday,evening,4,4,22,33523.69,Evening (after 6 pm),"Andy G, Alec G, Alex M, Zach C, ",4,4,2,4,0,0,0,2,4,,
1015,oky9m2khn27,BB,backward,2,Sunday,Thursday,midday,4,4,23,68300.13,Midday (noon - 6 pm),"Emily H, Jade O, Marissa A , Mechanic Guy , Amy V, ",5,1,1,4,1,1,1,0,0,,
1015,oky9m2khn28,BB,backward,2,Sunday,Thursday,morning,4,4,24,4478.875,Morning (until noon),XX,0,0,0,0,0,0,0,0,0,,
1016,pl3p4bwqp4,BF,backward,1,Thursday,Thursday,evening,1,1,1,5465,Evening (after 6 pm),0,0,0,0,0,0,0,0,0,0,,y
1016,pl3p4bwqp5,BF,backward,1,Thursday,Thursday,midday,1,1,2,6292,Midday (noon - 6 pm),0,0,0,0,0,0,0,0,0,0,,y
1016,pl3p4bwqp6,BF,backward,1,Thursday,Thursday,morning,1,1,3,4826,Morning (until noon),5,5,0,0,0,0,0,0,0,0,,y
1016,pl3p4bwqp7,BF,backward,1,Thursday,Wednesday,evening,2,2,4,9167,Evening (after 6 pm),8,8,0,0,0,0,0,0,0,0,,y
1016,pl3p4bwqp8,BF,backward,1,Thursday,Wednesday,midday,2,2,5,6905,Midday (noon - 6 pm),3,3,0,0,0,0,0,0,0,0,,y
1016,pl3p4bwqp9,BF,backward,1,Thursday,Wednesday,morning,2,2,6,3001,Morning (until noon),2,2,0,0,0,0,0,0,0,0,,y
1016,pl3p4bwqp10,BF,backward,1,Thursday,Tuesday,evening,3,3,7,10247,Evening (after 6 pm),3,3,0,0,0,0,0,0,0,0,,y
1016,pl3p4bwqp11,BF,backward,1,Thursday,Tuesday,midday,3,3,8,5193,Midday (noon - 6 pm),4,4,0,0,0,0,0,0,0,0,,y
1016,pl3p4bwqp12,BF,backward,1,Thursday,Tuesday,morning,3,3,9,3074,Morning (until noon),2,2,0,0,0,0,0,0,0,0,,y
1016,pl3p4bwqp13,BF,backward,1,Thursday,Monday,evening,4,4,10,11943,Evening (after 6 pm),5,5,0,0,0,0,0,0,0,0,,y
1016,pl3p4bwqp14,BF,backward,1,Thursday,Monday,midday,4,4,11,4444,Midday (noon - 6 pm),4,4,0,0,0,0,0,0,0,0,,y
1016,pl3p4bwqp15,BF,backward,1,Thursday,Monday,morning,4,4,12,2323,Morning (until noon),2,2,0,0,0,0,0,0,0,0,,y
1016,pl3p4bwqp16,BF,forward,2,Thursday,Monday,morning,4,1,13,8749,Morning (until noon),3,3,0,0,0,0,0,0,0,0,,y
1016,pl3p4bwqp17,BF,forward,2,Thursday,Monday,midday,4,1,14,15530,Midday (noon - 6 pm),5,5,0,0,0,0,0,0,0,0,,y
1016,pl3p4bwqp18,BF,forward,2,Thursday,Monday,evening,4,1,15,4583,Evening (after 6 pm),4,4,0,0,0,0,0,0,0,0,,y
1016,pl3p4bwqp19,BF,forward,2,Thursday,Tuesday,morning,3,2,16,5207,Morning (until noon),2,2,0,0,0,0,0,0,0,0,,y
1016,pl3p4bwqp20,BF,forward,2,Thursday,Tuesday,midday,3,2,17,4242,Midday (noon - 6 pm),5,5,0,0,0,0,0,0,0,0,,y
1016,pl3p4bwqp21,BF,forward,2,Thursday,Tuesday,evening,3,2,18,3857,Evening (after 6 pm),6,6,0,0,0,0,0,0,0,0,,y
1016,pl3p4bwqp22,BF,forward,2,Thursday,Wednesday,morning,2,3,19,4873,Morning (until noon),3,3,0,0,0,0,0,0,0,0,,y
1016,pl3p4bwqp23,BF,forward,2,Thursday,Wednesday,midday,2,3,20,3650,Midday (noon - 6 pm),5,5,0,0,0,0,0,0,0,0,,y
1016,pl3p4bwqp24,BF,forward,2,Thursday,Wednesday,evening,2,3,21,1408,Evening (after 6 pm),8,8,0,0,0,0,0,0,0,0,,y
1016,pl3p4bwqp25,BF,forward,2,Thursday,Thursday,morning,1,4,22,5602,Morning (until noon),5,5,0,0,0,0,0,0,0,0,,y
1016,pl3p4bwqp26,BF,forward,2,Thursday,Thursday,midday,1,4,23,1978,Midday (noon - 6 pm),0,0,0,0,0,0,0,0,0,0,,y
1016,pl3p4bwqp27,BF,forward,2,Thursday,Thursday,evening,1,4,24,1655,Evening (after 6 pm),0,0,0,0,0,0,0,0,0,0,,y
1017,qocbtmw0xr,BB,backward,1,Wednesday,Wednesday,evening,1,1,1,42531.195,Evening (after 6 pm),"Isra, , Nemah, , Sabeen, , Safia, , Ashra, , Raihana, , Afifa, , Rameen",8,8,8,8,0,0,0,8,8,,
1017,qocbtmw0xr,BB,backward,1,Wednesday,Wednesday,midday,1,1,2,22640.885,Midday (noon - 6 pm),"Maintenance guy, , Rameen",2,2,2,1,1,1,1,1,1,,
1017,qocbtmw0xr,BB,backward,1,Wednesday,Wednesday,morning,1,1,3,19529.7,Morning (until noon),Maintenance guy,1,0,0,0,1,0,0,0,0,,
1017,qocbtmw0xr,BB,backward,1,Wednesday,Tuesday,evening,2,2,4,53063.355,Evening (after 6 pm),"Isra, Laiba, Ashra, Safia, Sabeen, Rameen",6,6,2,6,0,0,0,2,6,,
1017,qocbtmw0xr,BB,backward,1,Wednesday,Tuesday,midday,2,2,5,7294.14,Midday (noon - 6 pm),Rameen,1,0,0,1,0,0,0,0,0,,
1017,qocbtmw0xr,BB,backward,1,Wednesday,Tuesday,morning,2,2,6,17043.385,Morning (until noon),xx,0,0,0,0,0,0,0,0,0,,
1017,qocbtmw0xr,BB,backward,1,Wednesday,Monday,evening,3,3,7,28642.165,Evening (after 6 pm),"Rameen, Nemah, Raihana, Bushra, Afifa, Humza, Birdal",7,7,3,7,0,0,0,3,7,,
1017,qocbtmw0xr,BB,backward,1,Wednesday,Monday,midday,3,3,8,42186.46,Midday (noon - 6 pm),"Nemah, Raihana, ",2,0,0,2,0,0,0,0,0,,
1017,qocbtmw0xr,BB,backward,1,Wednesday,Monday,morning,3,3,9,10606.545,Morning (until noon),xx,0,0,0,0,0,0,0,0,0,,
1017,qocbtmw0xr,BB,backward,1,Wednesday,Sunday,evening,4,4,10,13832.375,Evening (after 6 pm),xx,0,0,0,0,0,0,0,0,0,,
1017,qocbtmw0xr,BB,backward,1,Wednesday,Sunday,midday,4,4,11,8561.935,Midday (noon - 6 pm),Rameen,1,1,0,1,0,0,0,0,1,,
1017,qocbtmw0xr,BB,backward,1,Wednesday,Sunday,morning,4,4,12,11644.16,Morning (until noon),xx,0,0,0,0,0,0,0,0,0,,
1017,qocbtmw0xr,BB,backward,2,Wednesday,Wednesday,evening,1,1,13,48963.545,Evening (after 6 pm),"Isra, Nemah, Raihana, Sabeen, Ashra, Safia, Afifa, Rameen",8,8,0,8,0,0,0,0,8,,
1017,qocbtmw0xr,BB,backward,2,Wednesday,Wednesday,midday,1,1,14,10262.5,Midday (noon - 6 pm),"Rameen, Maintenance guy",2,0,0,1,1,0,0,0,0,,
1017,qocbtmw0xr,BB,backward,2,Wednesday,Wednesday,morning,1,1,15,6090.17,Morning (until noon),Maintenance guy,1,0,0,0,1,0,0,0,0,,
1017,qocbtmw0xr,BB,backward,2,Wednesday,Tuesday,evening,2,2,16,30768.165,Evening (after 6 pm),"Isra, Laiba, Ashra, Safia, Sabeen, Rameen",6,6,0,6,0,0,0,0,6,,
1017,qocbtmw0xr,BB,backward,2,Wednesday,Tuesday,midday,2,2,17,7883.77,Midday (noon - 6 pm),Rameen,1,0,0,1,0,0,0,0,0,,
1017,qocbtmw0xr,BB,backward,2,Wednesday,Tuesday,morning,2,2,18,5940.94,Morning (until noon),xx,0,0,0,0,0,0,0,0,0,,
1017,qocbtmw0xr,BB,backward,2,Wednesday,Monday,evening,3,3,19,68798.11,Evening (after 6 pm),"Raihana, Nemah, Neshmia, Rameen, Bushra, Afifa, Birdal, Humza",8,8,1,8,0,0,0,1,8,,
1017,qocbtmw0xr,BB,backward,2,Wednesday,Monday,midday,3,3,20,35246.395,Midday (noon - 6 pm),"Raihana, Nemah, Neshmia, Nisa",4,0,1,4,0,0,0,1,0,,
1017,qocbtmw0xr,BB,backward,2,Wednesday,Monday,morning,3,3,21,4546.8,Morning (until noon),xx,0,0,0,0,0,0,0,0,0,,
1017,qocbtmw0xr,BB,backward,2,Wednesday,Sunday,evening,4,4,22,116773.68,Evening (after 6 pm),"Aalishba, Aalishba mom, Aalishba sister, Afifa, Aila, Rameen, Farina, Farina sister, Aysha",9,9,7,9,0,0,0,7,9,,
1017,qocbtmw0xr,BB,backward,2,Wednesday,Sunday,midday,4,4,23,6986.295,Midday (noon - 6 pm),Rameen,1,0,0,1,0,0,0,0,0,,
1017,qocbtmw0xr,BB,backward,2,Wednesday,Sunday,morning,4,4,24,3147.24,Morning (until noon),xx,0,0,0,0,0,0,0,0,0,,
1018,q5nuzht09q,FF,forward,1,Monday,Friday,morning,1,4,1,13098.12,Morning (until noon),XX,0,0,0,0,0,0,0,0,0,,
1018,q5nuzht09q,FF,forward,1,Monday,Friday,midday,1,4,2,9740.2,Midday (noon - 6 pm),XX,0,0,0,0,0,0,0,0,0,,
1018,q5nuzht09q,FF,forward,1,Monday,Friday,evening,1,4,3,3922.875,Evening (after 6 pm),XX,0,0,0,0,0,0,0,0,0,,
1018,q5nuzht09q,FF,forward,1,Monday,Saturday,morning,2,3,4,6865.285,Morning (until noon),XX,0,0,0,0,0,0,0,0,0,,
1018,q5nuzht09q,FF,forward,1,Monday,Saturday,midday,2,3,5,47923.57,Midday (noon - 6 pm),A tester who checked me in at the Ice Arena to receive a covid test.,1,1,1,0,1,1,1,0,0,,
1018,q5nuzht09q,FF,forward,1,Monday,Saturday,evening,2,3,6,51547.095,Evening (after 6 pm),Lady who took my basket after I finished in the self-checkout line at Target. ,1,1,1,0,1,1,1,0,0,,
1018,q5nuzht09q,FF,forward,1,Monday,Sunday,morning,3,2,7,7323.445,Morning (until noon),XX,0,0,0,0,0,0,0,0,0,,
1018,q5nuzht09q,FF,forward,1,Monday,Sunday,midday,3,2,8,4526.605,Midday (noon - 6 pm),XX,0,0,0,0,0,0,0,0,0,,
1018,q5nuzht09q,FF,forward,1,Monday,Sunday,evening,3,2,9,9583.535,Evening (after 6 pm),XX,0,0,0,0,0,0,0,0,0,,
1018,q5nuzht09q,FF,forward,1,Monday,Monday,morning,4,1,10,5975.33,Morning (until noon),Dad,1,1,1,1,0,0,0,1,1,,
1018,q5nuzht09q,FF,forward,1,Monday,Monday,midday,4,1,11,9873.63,Midday (noon - 6 pm),XX,0,0,0,0,0,0,0,0,0,,
1018,q5nuzht09q,FF,forward,1,Monday,Monday,evening,4,1,12,4748.48,Evening (after 6 pm),XX,0,0,0,0,0,0,0,0,0,,
1018,q5nuzht09q,FF,forward,2,Monday,Friday,morning,1,4,13,10130.755,Morning (until noon),XX,0,0,0,0,0,0,0,0,0,,
1018,q5nuzht09q,FF,forward,2,Monday,Friday,midday,1,4,14,8767.46,Midday (noon - 6 pm),XX,0,0,0,0,0,0,0,0,0,,
1018,q5nuzht09q,FF,forward,2,Monday,Friday,evening,1,4,15,5252.905,Evening (after 6 pm),XX,0,0,0,0,0,0,0,0,0,,
1018,q5nuzht09q,FF,forward,2,Monday,Saturday,morning,2,3,16,3973.855,Morning (until noon),XX,0,0,0,0,0,0,0,0,0,,
1018,q5nuzht09q,FF,forward,2,Monday,Saturday,midday,2,3,17,18909.605,Midday (noon - 6 pm),Tester at Covid test location.,1,1,0,0,1,0,0,0,1,,
1018,q5nuzht09q,FF,forward,2,Monday,Saturday,evening,2,3,18,15519.46,Evening (after 6 pm),Lady who took my basket at Target,1,1,0,0,1,0,0,0,1,,
1018,q5nuzht09q,FF,forward,2,Monday,Sunday,morning,3,2,19,17487.79,Morning (until noon),XX,0,0,0,0,0,0,0,0,0,,
1018,q5nuzht09q,FF,forward,2,Monday,Sunday,midday,3,2,20,1857.385,Midday (noon - 6 pm),XX,0,0,0,0,0,0,0,0,0,,
1018,q5nuzht09q,FF,forward,2,Monday,Sunday,evening,3,2,21,2351.35,Evening (after 6 pm),XX,0,0,0,0,0,0,0,0,0,,
1018,q5nuzht09q,FF,forward,2,Monday,Monday,morning,4,1,22,5415.33,Morning (until noon),Dad,1,1,0,1,0,0,0,0,1,,
1018,q5nuzht09q,FF,forward,2,Monday,Monday,midday,4,1,23,2641.05,Midday (noon - 6 pm),XX,0,0,0,0,0,0,0,0,0,,
1018,q5nuzht09q,FF,forward,2,Monday,Monday,evening,4,1,24,1471.645,Evening (after 6 pm),XX,0,0,0,0,0,0,0,0,0,,
1019,qmn7efvl31,BF,backward,1,Sunday,Sunday,evening,1,1,1,27620.025,Evening (after 6 pm),"My roommates, of which I have two.",2,2,2,2,0,0,0,2,2,,
1019,qmn7efvl32,BF,backward,1,Sunday,Sunday,midday,1,1,2,24734.92,Midday (noon - 6 pm),My roommates (two) and my suitemate (1).,6,6,5,3,0,0,0,5,6,,
1019,qmn7efvl33,BF,backward,1,Sunday,Sunday,morning,1,1,3,19163.28,Morning (until noon),My roommates (two).,2,0,0,2,0,0,0,0,0,,
1019,qmn7efvl34,BF,backward,1,Sunday,Saturday,evening,2,2,4,51321.45,Evening (after 6 pm),"My roommates (2), my friend and her roommates (6). I encountered 8 people total that night. ",8,8,6,8,0,0,0,6,8,,
1019,qmn7efvl35,BF,backward,1,Sunday,Saturday,midday,2,2,5,28630.435,Midday (noon - 6 pm),My roommates (2) and 3 other friends. The total would then be 5. ,5,3,3,5,0,0,0,3,3,,
1019,qmn7efvl36,BF,backward,1,Sunday,Saturday,morning,2,2,6,17350.845,Morning (until noon),My roommates (2).,2,0,0,2,0,0,0,0,0,,
1019,qmn7efvl37,BF,backward,1,Sunday,Friday,evening,3,3,7,55358.52,Evening (after 6 pm),I saw my roommates (2) and my friends (4). That is 6 people in total. ,6,6,1,6,0,0,0,1,6,,
1019,qmn7efvl38,BF,backward,1,Sunday,Friday,midday,3,3,8,37519.155,Midday (noon - 6 pm),My roommates (2)and a chipotle employee of whom I ordered from. That is 3 people in total. ,3,1,1,2,1,1,1,0,0,,
1019,qmn7efvl39,BF,backward,1,Sunday,Friday,morning,3,3,9,8247.39,Morning (until noon),"Just my two roommates. , ",2,0,0,2,0,0,0,0,0,,
1019,qmn7efvl40,BF,backward,1,Sunday,Thursday,evening,4,4,10,7341.385,Evening (after 6 pm),My two roommates. ,2,2,0,2,0,0,0,0,2,,
1019,qmn7efvl41,BF,backward,1,Sunday,Thursday,midday,4,4,11,15799.625,Midday (noon - 6 pm),My two roommates. ,2,0,0,2,0,0,0,0,0,,
1019,qmn7efvl42,BF,backward,1,Sunday,Thursday,morning,4,4,12,17814.65,Morning (until noon),My two roommates and my two suitemate. That is 4 people in total. ,4,2,1,4,0,0,0,1,2,,
1019,qmn7efvl43,BF,forward,2,Sunday,Thursday,morning,4,1,13,63711.375,Morning (until noon),"My roommates (2) my suitemates (2) and people from the lunch line in the cafeteria. There are usually a lot of people in the cafeteria, so when we stand in line for food, you come in contact with the person standing in front and behind you. ",6,6,2,4,2,2,2,0,4,y,
1019,qmn7efvl44,BF,forward,2,Sunday,Thursday,midday,4,1,14,20701.265,Midday (noon - 6 pm),Roommates (2),2,0,0,2,0,0,0,0,0,,
1019,qmn7efvl45,BF,forward,2,Sunday,Thursday,evening,4,1,15,21764.34,Evening (after 6 pm),My roommates and the people in line at the cafeteria. so this would be like 4 people in total. ,4,0,0,2,2,0,0,0,0,y,
1019,qmn7efvl46,BF,forward,2,Sunday,Friday,morning,3,2,16,18206.53,Morning (until noon),My roommates and the people downstairs in line for food. This would be like 4 people. ,4,4,0,2,2,0,0,0,4,y,
1019,qmn7efvl47,BF,forward,2,Sunday,Friday,midday,3,2,17,30746.54,Midday (noon - 6 pm),My 2 roommates. ,2,0,0,2,0,0,0,0,0,,
1019,qmn7efvl48,BF,forward,2,Sunday,Friday,evening,3,2,18,18387.4,Evening (after 6 pm),My roommates and my friends. This would be 6 people total,6,2,0,6,0,0,0,0,2,,
1019,qmn7efvl49,BF,forward,2,Sunday,Saturday,morning,2,3,19,12357.58,Morning (until noon),My two roommates.,2,2,0,2,0,0,0,0,2,,
1019,qmn7efvl50,BF,forward,2,Sunday,Saturday,midday,2,3,20,10352.315,Midday (noon - 6 pm),My two roommates and my two suitemates.,4,2,0,4,0,0,0,0,2,,
1019,qmn7efvl51,BF,forward,2,Sunday,Saturday,evening,2,3,21,16026.33,Evening (after 6 pm),My two roommates and my friend. This is 3 people in total. ,3,0,0,3,0,0,0,0,0,,
1019,qmn7efvl52,BF,forward,2,Sunday,Sunday,morning,1,4,22,14924.305,Morning (until noon),My roommates and my suitemate. This is 3 people in total. ,3,3,0,3,0,0,0,0,3,,
1019,qmn7efvl53,BF,forward,2,Sunday,Sunday,midday,1,4,23,5888.185,Midday (noon - 6 pm),My rommates ,2,0,0,2,0,0,0,0,0,,
1019,qmn7efvl54,BF,forward,2,Sunday,Sunday,evening,1,4,24,7499.72,Evening (after 6 pm),My roommates (2).,2,0,0,2,0,0,0,0,0,,
1020,sdkxswa2ov,FF,forward,1,Tuesday,Saturday,morning,1,4,1,31226.68,Morning (until noon),"teachers,and classmates",4,4,4,4,0,0,0,4,4,y,
1020,sdkxswa2ov,FF,forward,1,Tuesday,Saturday,midday,1,4,2,17048.26,Midday (noon - 6 pm),Families ,2,3,2,4,0,0,0,2,3,y,
1020,sdkxswa2ov,FF,forward,1,Tuesday,Saturday,evening,1,4,3,28530.045,Evening (after 6 pm),no one ,0,0,0,0,0,0,0,0,0,,
1020,sdkxswa2ov,FF,forward,1,Tuesday,Sunday,morning,2,3,4,15268.22,Morning (until noon),"teachers, classmates",4,4,0,4,0,0,0,0,4,y,
1020,sdkxswa2ov,FF,forward,1,Tuesday,Sunday,midday,2,3,5,8510.41,Midday (noon - 6 pm),classmates,2,0,0,2,0,0,0,0,0,y,
1020,sdkxswa2ov,FF,forward,1,Tuesday,Sunday,evening,2,3,6,3053.165,Evening (after 6 pm),no one ,0,0,0,0,0,0,0,0,0,,
1020,sdkxswa2ov,FF,forward,1,Tuesday,Monday,morning,3,2,7,20414.68,Morning (until noon),Families,2,2,0,2,0,0,0,0,2,y,
1020,sdkxswa2ov,FF,forward,1,Tuesday,Monday,midday,3,2,8,7172.705,Midday (noon - 6 pm),Families,2,0,0,2,0,0,0,0,0,y,
1020,sdkxswa2ov,FF,forward,1,Tuesday,Monday,evening,3,2,9,4508.555,Evening (after 6 pm),Families ,2,0,0,2,0,0,0,0,0,y,
1020,sdkxswa2ov,FF,forward,1,Tuesday,Tuesday,morning,4,1,10,8193.76,Morning (until noon),boyfriend,1,1,1,1,0,0,0,1,1,,
1020,sdkxswa2ov,FF,forward,1,Tuesday,Tuesday,midday,4,1,11,7088.09,Midday (noon - 6 pm),boyfriend,1,0,0,1,0,0,0,0,0,,
1020,sdkxswa2ov,FF,forward,1,Tuesday,Tuesday,evening,4,1,12,10856.705,Evening (after 6 pm),Boyfriend ,1,0,0,1,0,0,0,0,0,,
1020,sdkxswa2ov,FF,forward,2,Tuesday,Saturday,morning,1,4,13,12495.16,Morning (until noon),"teachers, classmates",4,4,0,2,0,0,0,0,4,y,
1020,sdkxswa2ov,FF,forward,2,Tuesday,Saturday,midday,1,4,14,10536.365,Midday (noon - 6 pm),classmates,2,0,0,2,0,0,0,0,0,y,
1020,sdkxswa2ov,FF,forward,2,Tuesday,Saturday,evening,1,4,15,2843.33,Evening (after 6 pm),no one ,0,0,0,0,0,0,0,0,0,,
1020,sdkxswa2ov,FF,forward,2,Tuesday,Sunday,morning,2,3,16,8461.28,Morning (until noon),"teachers, classmates",4,4,0,2,0,0,0,0,4,y,
1020,sdkxswa2ov,FF,forward,2,Tuesday,Sunday,midday,2,3,17,4579.555,Midday (noon - 6 pm),classmates,2,0,0,2,0,0,0,0,0,y,
1020,sdkxswa2ov,FF,forward,2,Tuesday,Sunday,evening,2,3,18,3187.865,Evening (after 6 pm),no one,0,0,0,0,0,0,0,0,0,,
1020,sdkxswa2ov,FF,forward,2,Tuesday,Monday,morning,3,2,19,8878.66,Morning (until noon),Families ,2,2,0,2,0,0,0,0,2,y,
1020,sdkxswa2ov,FF,forward,2,Tuesday,Monday,midday,3,2,20,3192.395,Midday (noon - 6 pm),Families ,2,0,0,2,0,0,0,0,0,y,
1020,sdkxswa2ov,FF,forward,2,Tuesday,Monday,evening,3,2,21,5902.035,Evening (after 6 pm),Families ,2,0,0,2,0,0,0,0,0,y,
1020,sdkxswa2ov,FF,forward,2,Tuesday,Tuesday,morning,4,1,22,5215.45,Morning (until noon),boyfriend,1,1,0,1,0,0,0,0,1,,
1020,sdkxswa2ov,FF,forward,2,Tuesday,Tuesday,midday,4,1,23,6740.45,Midday (noon - 6 pm),Boyfriend ,1,0,0,1,0,0,0,0,0,,
1020,sdkxswa2ov,FF,forward,2,Tuesday,Tuesday,evening,4,1,24,4857.215,Evening (after 6 pm),Boyfriend ,1,0,0,1,0,0,0,0,0,,
1021,slul6jakwt,BF,backward,1,Wednesday,Wednesday,evening,1,1,1,17894.25,Evening (after 6 pm),0,0,0,0,0,0,0,0,0,0,,y
1021,slul6jakwt,BF,backward,1,Wednesday,Wednesday,midday,1,1,2,17118.73,Midday (noon - 6 pm),6,6,0,0,0,0,0,0,0,0,,y
1021,slul6jakwt,BF,backward,1,Wednesday,Wednesday,morning,1,1,3,8889.37,Morning (until noon),1,1,0,0,0,0,0,0,0,0,,y
1021,slul6jakwt,BF,backward,1,Wednesday,Tuesday,evening,2,2,4,26676.075,Evening (after 6 pm),4,4,0,0,0,0,0,0,0,0,,y
1021,slul6jakwt,BF,backward,1,Wednesday,Tuesday,midday,2,2,5,12826.945,Midday (noon - 6 pm),5,5,0,0,0,0,0,0,0,0,,y
1021,slul6jakwt,BF,backward,1,Wednesday,Tuesday,morning,2,2,6,5563.655,Morning (until noon),1,1,0,0,0,0,0,0,0,0,,y
1021,slul6jakwt,BF,backward,1,Wednesday,Monday,evening,3,3,7,6497.16,Evening (after 6 pm),4,4,0,0,0,0,0,0,0,0,,y
1021,slul6jakwt,BF,backward,1,Wednesday,Monday,midday,3,3,8,4024.205,Midday (noon - 6 pm),5,5,0,0,0,0,0,0,0,0,,y
1021,slul6jakwt,BF,backward,1,Wednesday,Monday,morning,3,3,9,3232.795,Morning (until noon),2,2,0,0,0,0,0,0,0,0,,y
1021,slul6jakwt,BF,backward,1,Wednesday,Sunday,evening,4,4,10,6704.775,Evening (after 6 pm),4,4,0,0,0,0,0,0,0,0,,y
1021,slul6jakwt,BF,backward,1,Wednesday,Sunday,midday,4,4,11,7079.065,Midday (noon - 6 pm),4,4,0,0,0,0,0,0,0,0,,y
1021,slul6jakwt,BF,backward,1,Wednesday,Sunday,morning,4,4,12,7031.88,Morning (until noon),4,4,0,0,0,0,0,0,0,0,,y
1021,slul6jakwt,BF,forward,2,Wednesday,Sunday,morning,4,1,13,8712.295,Morning (until noon),4,4,0,0,0,0,0,0,0,0,,y
1021,slul6jakwt,BF,forward,2,Wednesday,Sunday,midday,4,1,14,7809.665,Midday (noon - 6 pm),4,4,0,0,0,0,0,0,0,0,,y
1021,slul6jakwt,BF,forward,2,Wednesday,Sunday,evening,4,1,15,3623.075,Evening (after 6 pm),4,4,0,0,0,0,0,0,0,0,,y
1021,slul6jakwt,BF,forward,2,Wednesday,Monday,morning,3,2,16,4706.855,Morning (until noon),2,2,0,0,0,0,0,0,0,0,,y
1021,slul6jakwt,BF,forward,2,Wednesday,Monday,midday,3,2,17,20684.915,Midday (noon - 6 pm),4,4,0,0,0,0,0,0,0,0,,y
1021,slul6jakwt,BF,forward,2,Wednesday,Monday,evening,3,2,18,3348.8,Evening (after 6 pm),4,4,0,0,0,0,0,0,0,0,,y
1021,slul6jakwt,BF,forward,2,Wednesday,Tuesday,morning,2,3,19,10919.615,Morning (until noon),1,1,0,0,0,0,0,0,0,0,,y
1021,slul6jakwt,BF,forward,2,Wednesday,Tuesday,midday,2,3,20,6635.345,Midday (noon - 6 pm),5,5,0,0,0,0,0,0,0,0,,y
1021,slul6jakwt,BF,forward,2,Wednesday,Tuesday,evening,2,3,21,2860.965,Evening (after 6 pm),4,4,0,0,0,0,0,0,0,0,,y
1021,slul6jakwt,BF,forward,2,Wednesday,Wednesday,morning,1,4,22,4357.97,Morning (until noon),1,1,0,0,0,0,0,0,0,0,,y
1021,slul6jakwt,BF,forward,2,Wednesday,Wednesday,midday,1,4,23,11241.565,Midday (noon - 6 pm),7,7,0,0,0,0,0,0,0,0,,y
1021,slul6jakwt,BF,forward,2,Wednesday,Wednesday,evening,1,4,24,15504.585,Evening (after 6 pm),4,4,0,0,0,0,0,0,0,0,,y
1022,tasdqg6rnm,BB,backward,1,Sunday,Sunday,evening,1,1,1,10861.74,Evening (after 6 pm),None. It's currently around 5PM.,0,0,0,0,0,0,0,0,0,,
1022,tasdqg6rnm,BB,backward,1,Sunday,Sunday,midday,1,1,2,49441.175,Midday (noon - 6 pm),"Person in front of me in line at the coffee shop, cashier, person who got me my cinnamon roll, my room-mate, Kris, quite a lot of people I passed by.",6,6,6,1,5,5,5,1,1,,
1022,tasdqg6rnm,BB,backward,1,Sunday,Sunday,morning,1,1,3,10142.145,Morning (until noon),None save my room-mate.,2,2,2,0,0,0,0,2,2,,
1022,tasdqg6rnm,BB,backward,1,Sunday,Saturday,evening,2,2,4,39793.425,Evening (after 6 pm),"Liz, Kris, Praveen, Matias, Sydney, Ren, ",6,6,5,6,0,0,0,5,6,,
1022,tasdqg6rnm,BB,backward,1,Sunday,Saturday,midday,2,2,5,18463.435,Midday (noon - 6 pm),"Matias, Kris, Praveen, Liz, ",4,0,0,4,0,0,0,0,0,,
1022,tasdqg6rnm,BB,backward,1,Sunday,Saturday,morning,2,2,6,4162.745,Morning (until noon),Matias,1,0,0,1,0,0,0,0,0,,
1022,tasdqg6rnm,BB,backward,1,Sunday,Friday,evening,3,3,7,22681.235,Evening (after 6 pm),"Convenience store clerk, Matias",2,2,1,1,1,1,1,0,1,,
1022,tasdqg6rnm,BB,backward,1,Sunday,Friday,midday,3,3,8,7553.62,Midday (noon - 6 pm),Matias,1,0,0,1,0,0,0,0,0,,
1022,tasdqg6rnm,BB,backward,1,Sunday,Friday,morning,3,3,9,13171.54,Morning (until noon),"Matias, Person who served me breakfast",2,1,1,1,1,1,1,0,0,,
1022,tasdqg6rnm,BB,backward,1,Sunday,Thursday,evening,4,4,10,20479.825,Evening (after 6 pm),"Person who served me dinner, Matias",2,2,1,1,1,0,1,1,1,,
1022,tasdqg6rnm,BB,backward,1,Sunday,Thursday,midday,4,4,11,8930.525,Midday (noon - 6 pm),"Matias, person who served me lunch",2,1,1,1,1,0,0,1,1,,
1022,tasdqg6rnm,BB,backward,1,Sunday,Thursday,morning,4,4,12,5179.085,Morning (until noon),"Kris, Matias",2,0,0,2,0,0,0,0,0,,
1022,tasdqg6rnm,BB,backward,2,Sunday,Sunday,evening,1,1,13,6437.61,Evening (after 6 pm),none! Still not 6PM,0,0,0,0,0,0,0,0,0,,
1022,tasdqg6rnm,BB,backward,2,Sunday,Sunday,midday,1,1,14,26188.705,Midday (noon - 6 pm),"Person behind me in line, cashier, person who handed me my food, people I passed by on my walk, Matias, Kris",6,6,2,2,4,0,0,2,6,,
1022,tasdqg6rnm,BB,backward,2,Sunday,Sunday,morning,1,1,15,5288.73,Morning (until noon),None save Matias,1,0,0,1,0,0,0,0,0,,
1022,tasdqg6rnm,BB,backward,2,Sunday,Saturday,evening,2,2,16,39511.88,Evening (after 6 pm),"Matias, Sydney, Ren, Kris, Praveen, Liz, person at convenience store",7,7,1,6,1,1,1,0,6,,
1022,tasdqg6rnm,BB,backward,2,Sunday,Saturday,midday,2,2,17,19997.58,Midday (noon - 6 pm),"person who served me dinner, Kris, Praveen, Matias, Liz",5,0,0,4,1,0,0,0,0,,
1022,tasdqg6rnm,BB,backward,2,Sunday,Saturday,morning,2,2,18,4980.095,Morning (until noon),No one save Matias,1,0,0,1,0,0,0,0,0,,
1022,tasdqg6rnm,BB,backward,2,Sunday,Friday,evening,3,3,19,25824.46,Evening (after 6 pm),"No one save Matias , person who served me dinner",2,2,0,1,1,0,0,0,2,,
1022,tasdqg6rnm,BB,backward,2,Sunday,Friday,midday,3,3,20,28069.275,Midday (noon - 6 pm),"person who served me lunch, Praveen, Kris, Matias",4,2,0,3,1,0,0,0,2,,
1022,tasdqg6rnm,BB,backward,2,Sunday,Friday,morning,3,3,21,5630.26,Morning (until noon),Matias,1,0,0,1,0,0,0,0,0,,
1022,tasdqg6rnm,BB,backward,2,Sunday,Thursday,evening,4,4,22,16848.775,Evening (after 6 pm),"Kris, Liz, Tessa, Matias, Praveen, Person who served dinner",6,6,1,5,1,1,1,0,5,,
1022,tasdqg6rnm,BB,backward,2,Sunday,Thursday,midday,4,4,23,12765.355,Midday (noon - 6 pm),"Kris , Liz, Tessa, Matias, Praveen, Person who served lunch",6,0,0,5,1,0,0,0,0,,
1022,tasdqg6rnm,BB,backward,2,Sunday,Thursday,morning,4,4,24,7033.645,Morning (until noon),"Matias, Person who served breakfast",2,0,0,1,1,0,0,0,0,,
1023,w6lg6e60p7,FB,forward,1,Wednesday,Sunday,morning,1,4,1,6459,Morning (until noon),0,0,0,0,0,0,0,0,0,0,,y
1023,w6lg6e60p8,FB,forward,1,Wednesday,Sunday,midday,1,4,2,4888,Midday (noon - 6 pm),0,0,0,0,0,0,0,0,0,0,,y
1023,w6lg6e60p9,FB,forward,1,Wednesday,Sunday,evening,1,4,3,4403,Evening (after 6 pm),0,0,0,0,0,0,0,0,0,0,,y
1023,w6lg6e60p10,FB,forward,1,Wednesday,Monday,morning,2,3,4,45600,Morning (until noon),0(this is all excluding family(I live at home right now) 4 other people at home with me)),4,4,4,4,0,0,0,4,4,,y
1023,w6lg6e60p11,FB,forward,1,Wednesday,Monday,midday,2,3,5,37315,Midday (noon - 6 pm),"I will continue to put down 0 because I don't leave the house, again, it is 0 excluding the 4 family members I live with",4,0,0,0,0,0,0,0,0,,y
1023,w6lg6e60p12,FB,forward,1,Wednesday,Monday,evening,2,3,6,1983,Evening (after 6 pm),0,0,0,0,0,0,0,0,0,0,,y
1023,w6lg6e60p13,FB,forward,1,Wednesday,Tuesday,morning,3,2,7,1692,Morning (until noon),0,0,0,0,0,0,0,0,0,0,,y
1023,w6lg6e60p14,FB,forward,1,Wednesday,Tuesday,midday,3,2,8,1588,Midday (noon - 6 pm),0,0,0,0,0,0,0,0,0,0,,y
1023,w6lg6e60p15,FB,forward,1,Wednesday,Tuesday,evening,3,2,9,1784,Evening (after 6 pm),0,0,0,0,0,0,0,0,0,0,,y
1023,w6lg6e60p16,FB,forward,1,Wednesday,Wednesday,morning,4,1,10,3148,Morning (until noon),0,0,0,0,0,0,0,0,0,0,,y
1023,w6lg6e60p17,FB,forward,1,Wednesday,Wednesday,midday,4,1,11,3060,Midday (noon - 6 pm),0,0,0,0,0,0,0,0,0,0,,y
1023,w6lg6e60p18,FB,forward,1,Wednesday,Wednesday,evening,4,1,12,1951,Evening (after 6 pm),0,0,0,0,0,0,0,0,0,0,,y
1023,w6lg6e60p19,FB,backward,2,Wednesday,Wednesday,evening,1,1,13,2675,Evening (after 6 pm),0,0,0,0,0,0,0,0,0,0,,y
1023,w6lg6e60p20,FB,backward,2,Wednesday,Wednesday,midday,1,1,14,1317,Midday (noon - 6 pm),0,0,0,0,0,0,0,0,0,0,,y
1023,w6lg6e60p21,FB,backward,2,Wednesday,Wednesday,morning,1,1,15,1234,Morning (until noon),0,0,0,0,0,0,0,0,0,0,,y
1023,w6lg6e60p22,FB,backward,2,Wednesday,Tuesday,evening,2,2,16,1323,Evening (after 6 pm),0,0,0,0,0,0,0,0,0,0,,y
1023,w6lg6e60p23,FB,backward,2,Wednesday,Tuesday,midday,2,2,17,1490,Midday (noon - 6 pm),0,0,0,0,0,0,0,0,0,0,,y
1023,w6lg6e60p24,FB,backward,2,Wednesday,Tuesday,morning,2,2,18,1988,Morning (until noon),0,0,0,0,0,0,0,0,0,0,,y
1023,w6lg6e60p25,FB,backward,2,Wednesday,Monday,evening,3,3,19,1170,Evening (after 6 pm),0,0,0,0,0,0,0,0,0,0,,y
1023,w6lg6e60p26,FB,backward,2,Wednesday,Monday,midday,3,3,20,1073,Midday (noon - 6 pm),0,0,0,0,0,0,0,0,0,0,,y
1023,w6lg6e60p27,FB,backward,2,Wednesday,Monday,morning,3,3,21,964,Morning (until noon),0,0,0,0,0,0,0,0,0,0,,y
1023,w6lg6e60p28,FB,backward,2,Wednesday,Sunday,evening,4,4,22,1218,Evening (after 6 pm),0,0,0,0,0,0,0,0,0,0,,y
1023,w6lg6e60p29,FB,backward,2,Wednesday,Sunday,midday,4,4,23,12521,Midday (noon - 6 pm),"0(again, this is excluding 4 family members)",4,0,0,0,0,0,0,0,0,,y
1023,w6lg6e60p30,FB,backward,2,Wednesday,Sunday,morning,4,4,24,2012,Morning (until noon),0,0,0,0,0,0,0,0,0,0,,y
1024,z00o18rcmq,FB,forward,1,Monday,Friday,morning,1,4,1,58439.5,Morning (until noon),"Mila, Agne, Anna, Taylor, Jenna, Emily, ALina, Ryan, Jordan, Line person, Line person, Line person",12,12,12,9,3,3,3,9,9,,
1024,z00o18rcmq,FB,forward,1,Monday,Friday,midday,1,4,2,23695.295,Midday (noon - 6 pm),"Mila, Jenna, Taylor, Alina, Agne, Emily, Ryan, ",7,4,4,7,0,0,0,4,4,,
1024,z00o18rcmq,FB,forward,1,Monday,Friday,evening,1,4,3,21503.9,Evening (after 6 pm),"Mila, Will, Taylor, Jenna, Alina, Bhargav, James, Cheech",8,4,4,8,0,0,0,4,4,,
1024,z00o18rcmq,FB,forward,1,Monday,Saturday,morning,2,3,4,19688.205,Morning (until noon),"Mila, Anna, Hannah",3,3,1,3,0,0,0,1,3,,
1024,z00o18rcmq,FB,forward,1,Monday,Saturday,midday,2,3,5,8528.04,Midday (noon - 6 pm),"Mila, Vera, ",2,1,1,2,0,0,0,1,1,,
1024,z00o18rcmq,FB,forward,1,Monday,Saturday,evening,2,3,6,19270.97,Evening (after 6 pm),"Momo, Mila, Karol, Madison, Val",5,4,4,5,0,0,0,4,4,,
1024,z00o18rcmq,FB,forward,1,Monday,Sunday,morning,3,2,7,8054.285,Morning (until noon),Mila,1,1,0,1,0,0,0,0,1,,
1024,z00o18rcmq,FB,forward,1,Monday,Sunday,midday,3,2,8,9692.185,Midday (noon - 6 pm),"Mila, Anna, Agne",3,2,0,3,0,0,0,0,2,,
1024,z00o18rcmq,FB,forward,1,Monday,Sunday,evening,3,2,9,4831.945,Evening (after 6 pm),"Mila, Anna, ",2,0,0,2,0,0,0,0,0,,
1024,z00o18rcmq,FB,forward,1,Monday,Monday,morning,4,1,10,12137.245,Morning (until noon),"Mila, Anna",2,2,0,2,0,0,0,0,2,,
1024,z00o18rcmq,FB,forward,1,Monday,Monday,midday,4,1,11,6104.765,Midday (noon - 6 pm),"Agne, Mila, Anna",3,1,0,3,0,0,0,0,1,,
1024,z00o18rcmq,FB,forward,1,Monday,Monday,evening,4,1,12,8051.875,Evening (after 6 pm),XX,0,0,0,0,0,0,0,0,0,,
1024,z00o18rcmq,FB,backward,2,Monday,Monday,evening,1,1,13,6032.26,Evening (after 6 pm),XX,0,0,0,0,0,0,0,0,0,,
1024,z00o18rcmq,FB,backward,2,Monday,Monday,midday,1,1,14,6901.99,Midday (noon - 6 pm),"Mila, Anna",2,2,0,2,0,0,0,0,2,,
1024,z00o18rcmq,FB,backward,2,Monday,Monday,morning,1,1,15,9642.825,Morning (until noon),"Mila, Anna, Hannah",3,1,0,3,0,0,0,0,1,,
1024,z00o18rcmq,FB,backward,2,Monday,Sunday,evening,2,2,16,6162.555,Evening (after 6 pm),"Mila, Anna",2,2,0,2,0,0,0,0,2,,
1024,z00o18rcmq,FB,backward,2,Monday,Sunday,midday,2,2,17,6737.45,Midday (noon - 6 pm),"Mila, Anna",2,0,0,2,0,0,0,0,0,,
1024,z00o18rcmq,FB,backward,2,Monday,Sunday,morning,2,2,18,4819.28,Morning (until noon),"Mila, Anna",2,0,0,2,0,0,0,0,0,,
1024,z00o18rcmq,FB,backward,2,Monday,Saturday,evening,3,3,19,18666.8,Evening (after 6 pm),"Momo, Madison, Mila, Val, Karol",5,5,0,5,0,0,0,0,5,,
1024,z00o18rcmq,FB,backward,2,Monday,Saturday,midday,3,3,20,10013.79,Midday (noon - 6 pm),"Mila, Vera, Anna, Hannah",4,0,0,4,0,0,0,0,0,,
1024,z00o18rcmq,FB,backward,2,Monday,Saturday,morning,3,3,21,4400.02,Morning (until noon),"Mila, Anna",2,0,0,2,0,0,0,0,0,,
1024,z00o18rcmq,FB,backward,2,Monday,Friday,evening,4,4,22,28704.68,Evening (after 6 pm),"Taylor, Jenna, Alina, Will, Alina, Mila, Bhargav, James, Cheech",9,9,0,9,0,0,0,0,9,,
1024,z00o18rcmq,FB,backward,2,Monday,Friday,midday,4,4,23,38040.31,Midday (noon - 6 pm),"Taylor, Jenna, Mila, Agne, Ryan, Alina, Emily, Anna",8,0,0,8,0,0,0,0,0,,
1024,z00o18rcmq,FB,backward,2,Monday,Friday,morning,4,4,24,24583.355,Morning (until noon),"Taylor, Jenna, Mila, Anna, Alina, Emily, Agne, Ryan, Line person, Line person, Line person, Jordan",12,3,0,9,3,0,3,0,0,,
1025,hr4ertv241,BB,backward,1,Thursday,Thursday,evening,1,1,1,11681.925,Evening (after 6 pm),Paige Thrasher,2,2,2,1,0,0,0,2,2,,
1025,hr4ertv242,BB,backward,1,Thursday,Thursday,midday,1,1,2,33549.45,Midday (noon - 6 pm),"Apartment Manager for Tour at Third, Apartment Manager for Round Balconies",2,2,2,0,2,2,2,0,0,,
1025,hr4ertv243,BB,backward,1,Thursday,Thursday,morning,1,1,3,17421.68,Morning (until noon),Paige Thrasher,1,0,0,0,0,0,0,0,0,,
1025,hr4ertv244,BB,backward,1,Thursday,Wednesday,evening,2,2,4,14485.17,Evening (after 6 pm),Paige Thrasher,1,1,0,0,0,0,0,0,1,,
1025,hr4ertv245,BB,backward,1,Thursday,Wednesday,midday,2,2,5,5675.86,Midday (noon - 6 pm),Paige Thrasher,1,0,0,0,0,0,0,0,0,,
1025,hr4ertv246,BB,backward,1,Thursday,Wednesday,morning,2,2,6,4458.195,Morning (until noon),Paige Thrasher,1,0,0,0,0,0,0,0,0,,
1025,hr4ertv247,BB,backward,1,Thursday,Tuesday,evening,3,3,7,6724.33,Evening (after 6 pm),Paige Thrasher,1,1,0,0,0,0,0,0,1,,
1025,hr4ertv248,BB,backward,1,Thursday,Tuesday,midday,3,3,8,4706.11,Midday (noon - 6 pm),Paige Thrasher,1,0,0,0,0,0,0,0,0,,
1025,hr4ertv249,BB,backward,1,Thursday,Tuesday,morning,3,3,9,4766.575,Morning (until noon),Paige Thrasher,1,0,0,0,0,0,0,0,0,,
1025,hr4ertv250,BB,backward,1,Thursday,Monday,evening,4,4,10,6532.605,Evening (after 6 pm),Paige Thrasher,1,1,0,0,0,0,0,0,1,,
1025,hr4ertv251,BB,backward,1,Thursday,Monday,midday,4,4,11,6916.13,Midday (noon - 6 pm),Paige Thrasher,1,0,0,0,0,0,0,0,0,,
1025,hr4ertv252,BB,backward,1,Thursday,Monday,morning,4,4,12,4003.665,Morning (until noon),Paige Thrasher,1,0,0,0,0,0,0,0,0,,
1025,hr4ertv253,BB,backward,2,Thursday,Thursday,evening,1,1,13,17466.56,Evening (after 6 pm),Paige Thrasher,1,1,0,0,0,0,0,0,1,,
1025,hr4ertv254,BB,backward,2,Thursday,Thursday,midday,1,1,14,26979.01,Midday (noon - 6 pm),"Apartment Manager for Tower at Third, Apartment Manager for Round Balconies, Paige Thrasher",3,2,0,1,2,0,2,0,0,,
1025,hr4ertv255,BB,backward,2,Thursday,Thursday,morning,1,1,15,5122.255,Morning (until noon),"Paige Thrasher, ",1,0,0,0,0,0,0,0,0,,
1025,hr4ertv256,BB,backward,2,Thursday,Wednesday,evening,2,2,16,4751.98,Evening (after 6 pm),Paige Thrasher,1,1,0,0,0,0,0,0,1,,
1025,hr4ertv257,BB,backward,2,Thursday,Wednesday,midday,2,2,17,3897.21,Midday (noon - 6 pm),Paige Thrasher,1,0,0,0,0,0,0,0,0,,
1025,hr4ertv258,BB,backward,2,Thursday,Wednesday,morning,2,2,18,4806.345,Morning (until noon),Paige Thrasher,1,0,0,0,0,0,0,0,0,,
1025,hr4ertv259,BB,backward,2,Thursday,Tuesday,evening,3,3,19,3858.475,Evening (after 6 pm),Paige Thrasher,1,1,0,0,0,0,0,0,1,,
1025,hr4ertv260,BB,backward,2,Thursday,Tuesday,midday,3,3,20,4013.065,Midday (noon - 6 pm),Paige Thrasher,1,0,0,0,0,0,0,0,0,,
1025,hr4ertv261,BB,backward,2,Thursday,Tuesday,morning,3,3,21,3380.105,Morning (until noon),Paige Thrasher,1,0,0,0,0,0,0,0,0,,
1025,hr4ertv262,BB,backward,2,Thursday,Monday,evening,4,4,22,4344.4,Evening (after 6 pm),Paige Thrasher,1,1,0,0,0,0,0,0,1,,
1025,hr4ertv263,BB,backward,2,Thursday,Monday,midday,4,4,23,3025.61,Midday (noon - 6 pm),Paige Thrasher,1,0,0,0,0,0,0,0,0,,
1025,hr4ertv264,BB,backward,2,Thursday,Monday,morning,4,4,24,2767.725,Morning (until noon),Paige Thrasher,1,0,0,0,0,0,0,0,0,,
1026,37t25sy8ey,BB,backward,1,Friday,Friday,evening,1,1,1,19463.385,Evening (after 6 pm),Adam and my father ,6,6,6,2,0,0,0,6,6,,
1026,37t25sy8ey,BB,backward,1,Friday,Friday,midday,1,1,2,23520.97,Midday (noon - 6 pm),Adam and my mother ,4,3,3,2,0,0,0,3,3,,
1026,37t25sy8ey,BB,backward,1,Friday,Friday,morning,1,1,3,10581.92,Morning (until noon),no one,0,0,0,0,0,0,0,0,0,,
1026,37t25sy8ey,BB,backward,1,Friday,Thursday,evening,2,2,4,30025.01,Evening (after 6 pm),"Adam, mother, and Father ",3,3,0,3,0,0,0,0,3,,
1026,37t25sy8ey,BB,backward,1,Friday,Thursday,midday,2,2,5,25568.93,Midday (noon - 6 pm),And and my mother ,2,0,0,2,0,0,0,0,0,,
1026,37t25sy8ey,BB,backward,1,Friday,Thursday,morning,2,2,6,4918.175,Morning (until noon),no one,0,0,0,0,0,0,0,0,0,,
1026,37t25sy8ey,BB,backward,1,Friday,Wednesday,evening,3,3,7,37150.535,Evening (after 6 pm),father ,1,1,0,1,0,0,0,0,1,,
1026,37t25sy8ey,BB,backward,1,Friday,Wednesday,midday,3,3,8,8595.775,Midday (noon - 6 pm),mother,1,0,0,1,0,0,0,0,0,,
1026,37t25sy8ey,BB,backward,1,Friday,Wednesday,morning,3,3,9,5156.76,Morning (until noon),no one,0,0,0,0,0,0,0,0,0,,
1026,37t25sy8ey,BB,backward,1,Friday,Tuesday,evening,4,4,10,8775.01,Evening (after 6 pm),father ,1,1,0,1,0,0,0,0,1,,
1026,37t25sy8ey,BB,backward,1,Friday,Tuesday,midday,4,4,11,4769.875,Midday (noon - 6 pm),no one,0,0,0,0,0,0,0,0,0,,
1026,37t25sy8ey,BB,backward,1,Friday,Tuesday,morning,4,4,12,6878.285,Morning (until noon),no one,0,0,0,0,0,0,0,0,0,,
1026,37t25sy8ey,BB,backward,2,Friday,Friday,evening,1,1,13,18627.435,Evening (after 6 pm),Adam and my father ,2,2,0,2,0,0,0,0,2,,
1026,37t25sy8ey,BB,backward,2,Friday,Friday,midday,1,1,14,10117.83,Midday (noon - 6 pm),Adam and my mother ,2,0,0,2,0,0,0,0,0,,
1026,37t25sy8ey,BB,backward,2,Friday,Friday,morning,1,1,15,4614.26,Morning (until noon),no one,0,0,0,0,0,0,0,0,0,,
1026,37t25sy8ey,BB,backward,2,Friday,Thursday,evening,2,2,16,59343.12,Evening (after 6 pm),"Adam, my father, and Steven ",3,3,1,3,0,0,0,1,3,,
1026,37t25sy8ey,BB,backward,2,Friday,Thursday,midday,2,2,17,24338.52,Midday (noon - 6 pm),Adam and my mom,2,0,0,2,0,0,0,0,0,,
1026,37t25sy8ey,BB,backward,2,Friday,Thursday,morning,2,2,18,10290.46,Morning (until noon),no one,0,0,0,0,0,0,0,0,0,,
1026,37t25sy8ey,BB,backward,2,Friday,Wednesday,evening,3,3,19,15521.1,Evening (after 6 pm),my dad,1,1,0,1,0,0,0,0,1,,
1026,37t25sy8ey,BB,backward,2,Friday,Wednesday,midday,3,3,20,7168.09,Midday (noon - 6 pm),no one,0,0,0,0,0,0,0,0,0,,
1026,37t25sy8ey,BB,backward,2,Friday,Wednesday,morning,3,3,21,4221.22,Morning (until noon),no one,0,0,0,0,0,0,0,0,0,,
1026,37t25sy8ey,BB,backward,2,Friday,Tuesday,evening,4,4,22,19768.84,Evening (after 6 pm),my dad,1,1,0,1,0,0,0,0,1,,
1026,37t25sy8ey,BB,backward,2,Friday,Tuesday,midday,4,4,23,9266.835,Midday (noon - 6 pm),no one,0,0,0,0,0,0,0,0,0,,
1026,37t25sy8ey,BB,backward,2,Friday,Tuesday,morning,4,4,24,3895.025,Morning (until noon),no one,0,0,0,0,0,0,0,0,0,,
1027,jv5bz8vycf,FF,forward,1,Friday,Tuesday,morning,1,4,1,30970.36,Morning (until noon),"amanda, oliwia, jack, kyle , roman, nadia, dorm people , choir people ",12,12,12,8,4,4,4,8,8,y,
1027,jv5bz8vycf,FF,forward,1,Friday,Tuesday,midday,1,4,2,21255.83,Midday (noon - 6 pm),xx,0,0,0,0,0,0,0,0,0,,
1027,jv5bz8vycf,FF,forward,1,Friday,Tuesday,evening,1,4,3,6608.32,Evening (after 6 pm),fjolla ,2,2,2,1,0,0,0,2,2,,
1027,jv5bz8vycf,FF,forward,1,Friday,Wednesday,morning,2,3,4,22126.24,Morning (until noon),"amanda, oliwia, kyle, roman, jack, jt, nadia , fjolla, ally",9,9,4,9,0,0,0,4,9,,
1027,jv5bz8vycf,FF,forward,1,Friday,Wednesday,midday,2,3,5,7085.785,Midday (noon - 6 pm),matt,1,1,1,1,0,0,0,1,1,,
1027,jv5bz8vycf,FF,forward,1,Friday,Wednesday,evening,2,3,6,9644.5,Evening (after 6 pm),zach,1,1,1,1,0,0,0,1,1,,
1027,jv5bz8vycf,FF,forward,1,Friday,Thursday,morning,3,2,7,23162.39,Morning (until noon),"jordan , maddie , amanda, oliwia, jack, kyle , roman , jt ",8,8,3,8,0,0,0,3,8,,
1027,jv5bz8vycf,FF,forward,1,Friday,Thursday,midday,3,2,8,4464.45,Midday (noon - 6 pm),"fjolla, ",1,0,0,1,0,0,0,0,0,,
1027,jv5bz8vycf,FF,forward,1,Friday,Thursday,evening,3,2,9,11190.47,Evening (after 6 pm),nadia,1,0,0,1,0,0,0,0,0,,
1027,jv5bz8vycf,FF,forward,1,Friday,Friday,morning,4,1,10,23716.5,Morning (until noon),"nadia, oliwia, amanda, starbucks people , rachael, michael, arielle, talia",9,9,6,7,2,0,2,6,7,y,
1027,jv5bz8vycf,FF,forward,1,Friday,Friday,midday,4,1,11,4141.64,Midday (noon - 6 pm),xx,0,0,0,0,0,0,0,0,0,,
1027,jv5bz8vycf,FF,forward,1,Friday,Friday,evening,4,1,12,2090.315,Evening (after 6 pm),xx,0,0,0,0,0,0,0,0,0,,
1027,jv5bz8vycf,FF,forward,2,Friday,Tuesday,morning,1,4,13,8239.1,Morning (until noon),"nadia, amanda, oliwia, ",3,3,0,3,0,0,0,0,3,,
1027,jv5bz8vycf,FF,forward,2,Friday,Tuesday,midday,1,4,14,7756.375,Midday (noon - 6 pm),"kyle , jt , roman , jack , ",4,1,0,4,0,0,0,0,1,,
1027,jv5bz8vycf,FF,forward,2,Friday,Tuesday,evening,1,4,15,3046.765,Evening (after 6 pm),"fjolla, ",1,0,0,1,0,0,0,0,0,,
1027,jv5bz8vycf,FF,forward,2,Friday,Wednesday,morning,2,3,16,10340.365,Morning (until noon),"amanda, oliwia, nadia, ",3,3,0,3,0,0,0,0,3,,
1027,jv5bz8vycf,FF,forward,2,Friday,Wednesday,midday,2,3,17,17937.345,Midday (noon - 6 pm),"kyle , roman , abby , jack , jt ",5,2,1,5,0,0,0,1,2,,
1027,jv5bz8vycf,FF,forward,2,Friday,Wednesday,evening,2,3,18,13321.84,Evening (after 6 pm),"jules , allie , johnny",3,0,2,3,0,0,0,2,0,,
1027,jv5bz8vycf,FF,forward,2,Friday,Thursday,morning,3,2,19,6450.145,Morning (until noon),"amanda, oliwia",2,2,0,2,0,0,0,0,2,,
1027,jv5bz8vycf,FF,forward,2,Friday,Thursday,midday,3,2,20,7731.48,Midday (noon - 6 pm),"nadia, jack, kyle , jt, roman",5,3,0,5,0,0,0,0,3,,
1027,jv5bz8vycf,FF,forward,2,Friday,Thursday,evening,3,2,21,3365.39,Evening (after 6 pm),fjolla,1,0,0,1,0,0,0,0,0,,
1027,jv5bz8vycf,FF,forward,2,Friday,Friday,morning,4,1,22,23596.255,Morning (until noon),"amanda, oliwia, nadia, starbucks people , ted , manny , rachael, michael, talia, arielle",11,11,2,9,2,1,2,1,9,,
1027,jv5bz8vycf,FF,forward,2,Friday,Friday,midday,4,1,23,4106.805,Midday (noon - 6 pm),xx,0,0,0,0,0,0,0,0,0,,
1027,jv5bz8vycf,FF,forward,2,Friday,Friday,evening,4,1,24,2318.425,Evening (after 6 pm),xx,0,0,0,0,0,0,0,0,0,,
1028,6zv1853qmb,BF,backward,1,Friday,Friday,evening,1,1,1,15314,Evening (after 6 pm),XX,0,0,0,0,0,,,,,,
1028,6zv1853qmb,BF,backward,1,Friday,Friday,midday,1,1,2,27958,Midday (noon - 6 pm),"Ethan, Kelly, Henry, Nathan, Gma, Gpa",6,6,6,6,0,,,,,,
1028,6zv1853qmb,BF,backward,1,Friday,Friday,morning,1,1,3,21536,Morning (until noon),"Kelly, Ethan, Nathan, Henry, Gma, Gpa",6,5,5,6,0,,,,,,
1028,6zv1853qmb,BF,backward,1,Friday,Thursday,evening,2,2,4,26015,Evening (after 6 pm),"Gma, Gpa, Brit",3,3,1,3,0,,,,,,
1028,6zv1853qmb,BF,backward,1,Friday,Thursday,midday,2,2,5,43530,Midday (noon - 6 pm),"Ethan, Kelly, Nathan, Henry, Gma, Gpa, PT",7,4,1,7,0,,,,,,
1028,6zv1853qmb,BF,backward,1,Friday,Thursday,morning,2,2,6,28145,Morning (until noon),"Gma, Ethan, Kelly, Nathan, Henry",5,0,0,5,0,,,,,,
1028,6zv1853qmb,BF,backward,1,Friday,Wednesday,evening,3,3,7,13662,Evening (after 6 pm),"Gma, Gpa",2,2,0,2,0,,,,,,
1028,6zv1853qmb,BF,backward,1,Friday,Wednesday,midday,3,3,8,20644,Midday (noon - 6 pm),"Ethan, Kelly, Nathan, Henry, Gma, Gpa",6,4,0,6,0,,,,,,
1028,6zv1853qmb,BF,backward,1,Friday,Wednesday,morning,3,3,9,16254,Morning (until noon),"Gma, Ethan, Kelly, Nathan, Henry",5,0,0,5,0,,,,,,
1028,6zv1853qmb,BF,backward,1,Friday,Tuesday,evening,4,4,10,8088,Evening (after 6 pm),"Gma, Gpa",2,2,1,2,0,,,,,,
1028,6zv1853qmb,BF,backward,1,Friday,Tuesday,midday,4,4,11,23006,Midday (noon - 6 pm),"Gma, Gpa, Ethan, Kelly, Nathan, Henry",6,4,0,6,0,,,,,,
1028,6zv1853qmb,BF,backward,1,Friday,Tuesday,morning,4,4,12,18581,Morning (until noon),"PT, Gma, Ethan, Kelly, Nathan, Henry",6,0,0,6,0,,,,,,
1028,6zv1853qmb,BF,forward,2,Friday,Tuesday,morning,4,1,13,36507,Morning (until noon),"PT, Gma, Ethan, Kelly, Nathan, Henry",6,6,0,6,0,,,,,,
1028,6zv1853qmb,BF,forward,2,Friday,Tuesday,midday,4,1,14,20818,Midday (noon - 6 pm),"Ethan, Kelly, Nathan, Henry, Gma, Gpa",6,0,0,6,0,,,,,,
1028,6zv1853qmb,BF,forward,2,Friday,Tuesday,evening,4,1,15,5788,Evening (after 6 pm),"Gma, Gpa",2,0,0,2,0,,,,,,
1028,6zv1853qmb,BF,forward,2,Friday,Wednesday,morning,3,2,16,18234,Morning (until noon),"Gma, Ethan, Kelly, Henry, Nathan",5,5,0,5,0,,,,,,
1028,6zv1853qmb,BF,forward,2,Friday,Wednesday,midday,3,2,17,18384,Midday (noon - 6 pm),"Ethan, Kelly, Henry, Nathan, Gma, Gpa",6,1,0,6,0,,,,,,
1028,6zv1853qmb,BF,forward,2,Friday,Wednesday,evening,3,2,18,4875,Evening (after 6 pm),"Gma, Gpa",2,0,0,2,0,,,,,,
1028,6zv1853qmb,BF,forward,2,Friday,Thursday,morning,2,3,19,18719,Morning (until noon),"Ethan, Gma, Henry, Kelly, Nathan",5,5,0,5,0,,,,,,
1028,6zv1853qmb,BF,forward,2,Friday,Thursday,midday,2,3,20,17418,Midday (noon - 6 pm),"PT, Ethan, Kelly, Nathan, Henry, Gma, Gpa",7,2,0,7,0,,,,,,
1028,6zv1853qmb,BF,forward,2,Friday,Thursday,evening,2,3,21,9506,Evening (after 6 pm),"Gma, Gpa, Brit",3,0,0,3,0,,,,,,
1028,6zv1853qmb,BF,forward,2,Friday,Friday,morning,1,4,22,23315,Morning (until noon),"Ethan, Kelly, Henry, Nathan, Gma, Gpa",6,6,0,6,0,,,,,,
1028,6zv1853qmb,BF,forward,2,Friday,Friday,midday,1,4,23,25212,Midday (noon - 6 pm),"Ethan, Kelly, Henry, Nathan, Gma, Gpa",6,0,0,6,0,,,,,,
1028,6zv1853qmb,BF,forward,2,Friday,Friday,evening,1,4,24,3653,Evening (after 6 pm),XX,0,0,0,0,0,,,,,,
1029,cdzn006xco,BB,backward,1,Saturday,Saturday,evening,1,1,1,7021.41,Evening (after 6 pm),none,0,0,0,0,0,0,0,0,0,,
1029,cdzn006xco,BB,backward,1,Saturday,Saturday,midday,1,1,2,7723.82,Midday (noon - 6 pm),none,0,0,0,0,0,0,0,0,0,,
1029,cdzn006xco,BB,backward,1,Saturday,Saturday,morning,1,1,3,28990.115,Morning (until noon),one girl at my job but it was only for 5 minutes ,1,1,1,0,1,1,1,0,0,,
1029,cdzn006xco,BB,backward,1,Saturday,Friday,evening,2,2,4,41202.755,Evening (after 6 pm),"My boss at my job who is an older woman who has got the vaccine for covid both doses, and two other workers at my job who are young woman. ",2,2,2,0,2,2,2,0,0,,
1029,cdzn006xco,BB,backward,1,Saturday,Friday,midday,2,2,5,17319.245,Midday (noon - 6 pm),"none, ",0,0,0,0,0,0,0,0,0,,
1029,cdzn006xco,BB,backward,1,Saturday,Friday,morning,2,2,6,3832.66,Morning (until noon),none,0,0,0,0,0,0,0,0,0,,
1029,cdzn006xco,BB,backward,1,Saturday,Thursday,evening,3,3,7,89012.6,Evening (after 6 pm),none,0,0,0,0,0,0,0,0,0,,
1029,cdzn006xco,BB,backward,1,Saturday,Thursday,midday,3,3,8,3187.18,Midday (noon - 6 pm),none,0,0,0,0,0,0,0,0,0,,
1029,cdzn006xco,BB,backward,1,Saturday,Thursday,morning,3,3,9,10065.675,Morning (until noon),none I stood in my dorm room the entire day ,0,0,0,0,0,0,0,0,0,,
1029,cdzn006xco,BB,backward,1,Saturday,Wednesday,evening,4,4,10,19852.71,Evening (after 6 pm),"none I stood in my dorm room the entire day , ",0,0,0,0,0,0,0,0,0,,
1029,cdzn006xco,BB,backward,1,Saturday,Wednesday,midday,4,4,11,2847.265,Midday (noon - 6 pm),"none, ",0,0,0,0,0,0,0,0,0,,
1029,cdzn006xco,BB,backward,1,Saturday,Wednesday,morning,4,4,12,3895.665,Morning (until noon),none,0,0,0,0,0,0,0,0,0,,
1029,cdzn006xco,BB,backward,2,Saturday,Saturday,evening,1,1,13,6233.465,Evening (after 6 pm),0,0,0,0,0,0,0,0,0,0,,y
1029,cdzn006xco,BB,backward,2,Saturday,Saturday,midday,1,1,14,4373.21,Midday (noon - 6 pm),0,0,0,0,0,0,0,0,0,0,,y
1029,cdzn006xco,BB,backward,2,Saturday,Saturday,morning,1,1,15,16463.565,Morning (until noon),0,0,0,0,0,0,0,0,0,0,,y
1029,cdzn006xco,BB,backward,2,Saturday,Friday,evening,2,2,16,8827.135,Evening (after 6 pm),0,0,0,0,0,0,0,0,0,0,,y
1029,cdzn006xco,BB,backward,2,Saturday,Friday,midday,2,2,17,34439.07,Midday (noon - 6 pm),"I forgot about the cleaning lady, as well as a man who works beside my desk at work ",2,2,2,0,2,2,2,0,0,,
1029,cdzn006xco,BB,backward,2,Saturday,Friday,morning,2,2,18,13236.215,Morning (until noon),Grubhub delivery person,1,1,1,0,1,1,1,0,0,,
1029,cdzn006xco,BB,backward,2,Saturday,Thursday,evening,3,3,19,4451.49,Evening (after 6 pm),0,0,0,0,0,0,0,0,0,0,,y
1029,cdzn006xco,BB,backward,2,Saturday,Thursday,midday,3,3,20,2192.54,Midday (noon - 6 pm),0,0,0,0,0,0,0,0,0,0,,y
1029,cdzn006xco,BB,backward,2,Saturday,Thursday,morning,3,3,21,2712.465,Morning (until noon),0,0,0,0,0,0,0,0,0,0,,y
1029,cdzn006xco,BB,backward,2,Saturday,Wednesday,evening,4,4,22,1882.2,Evening (after 6 pm),0,0,0,0,0,0,0,0,0,0,,y
1029,cdzn006xco,BB,backward,2,Saturday,Wednesday,midday,4,4,23,1714.965,Midday (noon - 6 pm),0,0,0,0,0,0,0,0,0,0,,y
1029,cdzn006xco,BB,backward,2,Saturday,Wednesday,morning,4,4,24,2482.555,Morning (until noon),0,0,0,0,0,0,0,0,0,0,,y
1030,dyn2lpcsl0,BB,backward,1,Saturday,Saturday,evening,1,1,1,12960.21,Evening (after 6 pm),xx,0,0,0,0,0,0,0,0,0,,
1030,dyn2lpcsl1,BB,backward,1,Saturday,Saturday,midday,1,1,2,12719.31,Midday (noon - 6 pm),"Alex, person at dining hall",3,3,3,2,1,1,1,2,1,,
1030,dyn2lpcsl2,BB,backward,1,Saturday,Saturday,morning,1,1,3,5616.345,Morning (until noon),Alex,1,1,1,1,0,0,0,1,0,,
1030,dyn2lpcsl3,BB,backward,1,Saturday,Friday,evening,2,2,4,33761.2,Evening (after 6 pm),"Alex, Anna, Kyle, Dave, Kevin, Megan, Vince, John",8,8,7,8,0,0,0,7,1,,
1030,dyn2lpcsl4,BB,backward,1,Saturday,Friday,midday,2,2,5,12485.32,Midday (noon - 6 pm),"Alex, Anna",2,0,0,2,0,0,0,0,0,,
1030,dyn2lpcsl5,BB,backward,1,Saturday,Friday,morning,2,2,6,7532.59,Morning (until noon),Alex,1,1,1,1,0,0,0,1,0,,
1030,dyn2lpcsl6,BB,backward,1,Saturday,Thursday,evening,3,3,7,19575.26,Evening (after 6 pm),"Alex, Anna, person in dining hall",3,3,0,2,1,1,1,-1,4,,
1030,dyn2lpcsl7,BB,backward,1,Saturday,Thursday,midday,3,3,8,13488.855,Midday (noon - 6 pm),"Alex, person in dining hall",2,0,0,1,1,0,0,0,0,,
1030,dyn2lpcsl8,BB,backward,1,Saturday,Thursday,morning,3,3,9,3940.73,Morning (until noon),Alex,1,0,0,1,0,0,0,0,0,,
1030,dyn2lpcsl9,BB,backward,1,Saturday,Wednesday,evening,4,4,10,17012.36,Evening (after 6 pm),"Alex, person in dining hall",2,2,0,1,1,0,1,0,2,,
1030,dyn2lpcsl10,BB,backward,1,Saturday,Wednesday,midday,4,4,11,10556.465,Midday (noon - 6 pm),"Alex, person in dining hall",2,0,0,1,1,0,0,0,0,,
1030,dyn2lpcsl11,BB,backward,1,Saturday,Wednesday,morning,4,4,12,3488.34,Morning (until noon),Alex,1,0,0,1,0,0,0,0,0,,
1030,dyn2lpcsl12,BB,backward,2,Saturday,Saturday,evening,1,1,13,3402.03,Evening (after 6 pm),xx,0,0,0,0,0,0,0,0,0,,
1030,dyn2lpcsl13,BB,backward,2,Saturday,Saturday,midday,1,1,14,11975.4,Midday (noon - 6 pm),"Alex, person in dining hall",2,2,0,1,1,0,1,0,2,,
1030,dyn2lpcsl14,BB,backward,2,Saturday,Saturday,morning,1,1,15,3808.19,Morning (until noon),Alex,1,0,0,1,0,0,0,0,0,,
1030,dyn2lpcsl15,BB,backward,2,Saturday,Friday,evening,2,2,16,16043.715,Evening (after 6 pm),"Alex, Anna, Kyle, Vince, John, Kevin, Dave",7,7,1,7,0,0,0,1,6,,
1030,dyn2lpcsl16,BB,backward,2,Saturday,Friday,midday,2,2,17,5921.32,Midday (noon - 6 pm),"Alex, Anna",2,0,0,2,0,0,0,0,0,,
1030,dyn2lpcsl17,BB,backward,2,Saturday,Friday,morning,2,2,18,3295.055,Morning (until noon),Alex,1,0,0,1,0,0,0,0,0,,
1030,dyn2lpcsl18,BB,backward,2,Saturday,Thursday,evening,3,3,19,12131.2,Evening (after 6 pm),"Alex, Anna, person in dining hall",3,3,0,2,1,0,1,0,3,,
1030,dyn2lpcsl19,BB,backward,2,Saturday,Thursday,midday,3,3,20,9317.295,Midday (noon - 6 pm),"Alex, person in dining hall",2,0,0,1,1,0,0,0,0,,
1030,dyn2lpcsl20,BB,backward,2,Saturday,Thursday,morning,3,3,21,3183.11,Morning (until noon),Alex,1,0,0,1,0,0,0,0,0,,
1030,dyn2lpcsl21,BB,backward,2,Saturday,Wednesday,evening,4,4,22,9512.16,Evening (after 6 pm),"Alex, person in dining hall",2,2,0,1,1,0,1,0,2,,
1030,dyn2lpcsl22,BB,backward,2,Saturday,Wednesday,midday,4,4,23,8879.45,Midday (noon - 6 pm),"Alex, person in dining hall",2,0,0,1,1,0,0,0,0,,
1030,dyn2lpcsl23,BB,backward,2,Saturday,Wednesday,morning,4,4,24,4989.19,Morning (until noon),Alex,1,0,0,1,0,0,0,0,0,,
1031,1wttwyn972,FF,forward,1,Saturday,Wednesday,morning,1,4,1,28059.64,Morning (until noon),"mom, dad, ben",3,3,3,3,0,0,0,3,3,,
1031,1wttwyn973,FF,forward,1,Saturday,Wednesday,midday,1,4,2,55483.99,Midday (noon - 6 pm),"mom, dad, ben",4,4,4,4,0,0,0,4,4,,
1031,1wttwyn974,FF,forward,1,Saturday,Wednesday,evening,1,4,3,5462.3,Evening (after 6 pm),"mom, dad, ben",3,2,2,3,0,0,0,2,2,,
1031,1wttwyn975,FF,forward,1,Saturday,Thursday,morning,2,3,4,43308.11,Morning (until noon),"mom, dad",2,2,0,2,0,0,0,0,2,,
1031,1wttwyn976,FF,forward,1,Saturday,Thursday,midday,2,3,5,27748.28,Midday (noon - 6 pm),"mom, dad, dorm tour guide, apartment leasing agent",4,2,2,2,2,2,2,0,0,,
1031,1wttwyn977,FF,forward,1,Saturday,Thursday,evening,2,3,6,36577.675,Evening (after 6 pm),"mom, dad, portillo's cashier, lori, gary",5,3,3,4,1,1,1,2,2,,
1031,1wttwyn978,FF,forward,1,Saturday,Friday,morning,3,2,7,35974.915,Morning (until noon),"mom, dad, ben",3,3,0,3,0,0,0,0,3,,
1031,1wttwyn979,FF,forward,1,Saturday,Friday,midday,3,2,8,4072.67,Midday (noon - 6 pm),"mom, dad, ben",3,0,0,3,0,0,0,0,0,,
1031,1wttwyn980,FF,forward,1,Saturday,Friday,evening,3,2,9,6018.01,Evening (after 6 pm),"mom , dad, ben",3,0,0,3,0,0,0,0,0,,
1031,1wttwyn981,FF,forward,1,Saturday,Saturday,morning,4,1,10,9520.975,Morning (until noon),"mom, dad",2,2,0,2,0,0,0,0,2,,
1031,1wttwyn982,FF,forward,1,Saturday,Saturday,midday,4,1,11,3590.995,Midday (noon - 6 pm),"mom, dad, ben",3,1,0,3,0,0,0,0,1,,
1031,1wttwyn983,FF,forward,1,Saturday,Saturday,evening,4,1,12,38777.05,Evening (after 6 pm),"mom, dad, ben, barne's and noble cashier, sephora employee, sephora cashier",6,3,3,3,3,1,3,2,0,,
1031,1wttwyn984,FF,forward,2,Saturday,Wednesday,morning,1,4,13,13585.84,Morning (until noon),"mom, dad, ben",3,3,0,3,0,0,0,0,3,,
1031,1wttwyn985,FF,forward,2,Saturday,Wednesday,midday,1,4,14,4480.355,Midday (noon - 6 pm),"mom, dad, ben",3,0,0,3,0,0,0,0,0,,
1031,1wttwyn986,FF,forward,2,Saturday,Wednesday,evening,1,4,15,4666.035,Evening (after 6 pm),"mom, dad, ben",3,0,0,3,0,0,0,0,0,,
1031,1wttwyn987,FF,forward,2,Saturday,Thursday,morning,2,3,16,12282.76,Morning (until noon),"mom, dad, ",2,2,0,2,0,0,0,0,2,,
1031,1wttwyn988,FF,forward,2,Saturday,Thursday,midday,2,3,17,23050.68,Midday (noon - 6 pm),"mom, dad, dorm tour guide, apartment leasing agent",4,2,2,2,2,1,2,1,0,,
1031,1wttwyn989,FF,forward,2,Saturday,Thursday,evening,2,3,18,10868.895,Evening (after 6 pm),"mom, dad, portillo's cashier, lori, gary",5,3,3,4,1,1,0,2,3,,
1031,1wttwyn990,FF,forward,2,Saturday,Friday,morning,3,2,19,4356.775,Morning (until noon),"mom, dad",2,2,0,2,0,0,0,0,2,,
1031,1wttwyn991,FF,forward,2,Saturday,Friday,midday,3,2,20,12964.74,Midday (noon - 6 pm),"mom, dad, ben",3,1,0,3,0,0,0,0,1,,
