Subject,SubjectID,Condition,trial_day,trial_time,trial_condition,experiment_day,days_past,day_no,RT,condition_time_box,Response,Total Number of Names,Unique Within Day,Unique Overall,Specific Description,Vague Description,Vague.Unique.Overall,Vague.Unique.Day,Specific.Unique.Overall,Specific.Unique.Day,Plural Exists,Only Number Exists
2001,0b1sbg37w2,BAR,Tuesday,evening,backward,Tuesday,0,0,58478.2,Evening (after 6 pm),xx,0,0,0,0,0,0,0,0,0,,
2001,0b1sbg37w2,BAR,Tuesday,midday,backward,Tuesday,0,0,65087.3,Midday (noon - 6 pm),"brooke, hope, katie, Ta from Las, two girls from las, girl help find her class, Mom",9,9,9,6,3,3,3,6,6,,
2001,0b1sbg37w2,BAR,Tuesday,morning,backward,Tuesday,0,0,9462.7,Morning (until noon),"brooke, katie",3,3,3,3,0,0,0,3,3,,
2001,0b1sbg37w2,BAR,Monday,evening,backward,Tuesday,1,1,37030.4,Evening (after 6 pm),"brooke, katie, maddie, willow, emma",5,5,3,5,0,0,0,3,5,,
2001,0b1sbg37w2,BAR,Monday,midday,backward,Tuesday,1,1,33858.5,Midday (noon - 6 pm),"brooke, maddie, TA for Chem, 4 girls at my table for chem",7,5,2,3,4,0,4,2,1,,
2001,0b1sbg37w2,BAR,Monday,morning,backward,Tuesday,1,1,19358.5,Morning (until noon),katie,1,0,0,1,0,0,0,0,0,,
2001,0b1sbg37w2,BAR,Sunday,evening,backward,Tuesday,2,2,17538.3,Evening (after 6 pm),"brooke, katie",2,0,0,2,0,0,0,0,0,,
2001,0b1sbg37w2,BAR,Sunday,midday,backward,Tuesday,2,2,14001.7,Midday (noon - 6 pm),"brooke, katie",2,2,1,2,0,0,0,1,2,,
2001,0b1sbg37w2,BAR,Sunday,morning,backward,Tuesday,2,2,10976.7,Morning (until noon),katie,1,0,0,1,0,0,0,0,0,,
2001,0b1sbg37w2,BAR,Saturday,evening,backward,Tuesday,3,3,10709.6,Evening (after 6 pm),"brooke, katie",2,2,1,2,0,0,0,1,2,,
2001,0b1sbg37w2,BAR,Saturday,midday,backward,Tuesday,3,3,11346.2,Midday (noon - 6 pm),"brooke, katie",2,0,0,2,0,0,0,0,0,,
2001,0b1sbg37w2,BAR,Saturday,morning,backward,Tuesday,3,3,4738,Morning (until noon),xx,0,0,0,0,0,0,0,0,0,,
2002,0letmqku6q,FOR,Sunday,morning,forward,Wednesday,3,0,36639.7,Morning (until noon),"Sasha, A waiter at Bangkok Thai ",8,8,8,7,1,1,1,7,7,,
2002,0letmqku6q,FOR,Sunday,midday,forward,Wednesday,3,0,10543.2,Midday (noon - 6 pm),Sasha,1,0,0,1,0,0,0,0,0,,
2002,0letmqku6q,FOR,Sunday,evening,forward,Wednesday,3,0,3715.7,Evening (after 6 pm),Sasha,1,0,0,1,0,0,0,0,0,,
2002,0letmqku6q,FOR,Monday,morning,forward,Wednesday,2,1,20435.3,Morning (until noon),Sasha,1,1,0,1,0,0,0,0,1,,
2002,0letmqku6q,FOR,Monday,midday,forward,Wednesday,2,1,9026,Midday (noon - 6 pm),"Sasha, Jessica, Violet",3,2,2,3,0,0,0,2,2,,
2002,0letmqku6q,FOR,Monday,evening,forward,Wednesday,2,1,8300.3,Evening (after 6 pm),Sasha,1,0,0,1,0,0,0,0,0,,
2002,0letmqku6q,FOR,Tuesday,morning,forward,Wednesday,1,2,11305.4,Morning (until noon),Sasha,1,1,0,1,0,0,0,0,1,,
2002,0letmqku6q,FOR,Tuesday,midday,forward,Wednesday,1,2,31276.1,Midday (noon - 6 pm),"Austin, Abhi, Jessica, Megha, Raymon, Santosh, Ajay, Makyia, Neha",9,8,6,9,0,0,0,6,8,,
2002,0letmqku6q,FOR,Tuesday,evening,forward,Wednesday,1,2,4689.2,Evening (after 6 pm),Sasha,1,0,0,1,0,0,0,0,0,,
2002,0letmqku6q,FOR,Wednesday,morning,forward,Wednesday,0,3,10362.5,Morning (until noon),Sasha,1,1,0,1,0,0,0,0,1,,
2002,0letmqku6q,FOR,Wednesday,midday,forward,Wednesday,0,3,25834.9,Midday (noon - 6 pm),"Sneha, Emily, Austin, Ajay, Tanisha, Sudipta, Vicki",7,7,5,7,0,0,0,5,7,,
2002,0letmqku6q,FOR,Wednesday,evening,forward,Wednesday,0,3,4257,Evening (after 6 pm),Sasha,1,0,0,1,0,0,0,0,0,,
2003,0v1shlayt6,FR,FR,FR,FR,Sunday,0,0,134890.4,FR,"Marvin, my friend, Gina, friend's roommate, Tim, my roommate, Justin, my roommate, Karen, friend, Jalen, does cool dances, Jennie, pretty hair, Annah, Naima, Naima's friend, Ethan",12,,12,12,0,0,0,12,12,,
2004,0vz9yqkls1,FR,FR,FR,FR,Friday,0,0,147797.1,FR,"two JSM worker, Tina, Thai Restaurant worker",4,,4,1,3,3,3,1,1,,
2005,0x8hpzybms,FOR,Friday,midday,forward,Monday,3,0,50982.2,Midday (noon - 6 pm),"Faizah, Inaya, Jibran, Atif",8,8,8,8,0,0,0,8,8,,
2005,0x8hpzybms,FOR,Friday,evening,forward,Monday,3,0,38830,Evening (after 6 pm),"Malak, Zakiya, Iman, Faiza, Hanin, Rowa, Mariam, Nabiha, Areeba, Amna",10,7,10,10,0,0,0,10,7,,
2005,0x8hpzybms,FOR,Saturday,morning,forward,Monday,2,1,20942.5,Morning (until noon),"Faizah, Atif, Jibran, Inaya",4,2,2,4,0,0,0,2,2,,
2005,0x8hpzybms,FOR,Saturday,midday,forward,Monday,2,1,45285.5,Midday (noon - 6 pm),"Faizah, Atif, Jibran, Inaya, Vikki Hair Salon Lady",8,8,4,5,0,0,0,4,8,,
2005,0x8hpzybms,FOR,Saturday,evening,forward,Monday,2,1,12378.2,Evening (after 6 pm),"Faizah, Atif, Jibran, Inaya",4,0,0,4,0,0,0,0,0,,
2005,0x8hpzybms,FOR,Sunday,morning,forward,Monday,1,2,10649.5,Morning (until noon),"Faizah, Atif, Jibran, Inaya",4,2,0,4,0,0,0,0,2,,
2005,0x8hpzybms,FOR,Sunday,midday,forward,Monday,1,2,11626.8,Midday (noon - 6 pm),"Faizah, Atif, Jibran, Inaya, Zakiya",5,5,1,5,0,0,0,1,5,,
2005,0x8hpzybms,FOR,Sunday,evening,forward,Monday,1,2,23601.2,Evening (after 6 pm),"Faizah, Atif, Jibran, Inaya, Zakiya, Talat, Aziza, Feras, Kashif, Asfa, Yousuf, Zaid",12,7,7,12,0,0,0,7,7,,
2005,0x8hpzybms,FOR,Monday,morning,forward,Monday,0,3,16765.2,Morning (until noon),"Faizah, Atif, Jazmine, Johanna",4,4,2,4,0,0,0,2,4,,
2005,0x8hpzybms,FOR,Monday,midday,forward,Monday,0,3,7087.5,Midday (noon - 6 pm),Jazmine,1,1,0,1,0,0,0,0,1,,
2005,0x8hpzybms,FOR,Monday,evening,forward,Monday,0,3,7999.6,Evening (after 6 pm),"Jazmine, Johanna",2,1,0,2,0,0,0,0,1,,
2006,1rfgxogea3,FOR,Saturday,morning,forward,Tuesday,3,0,18677,Morning (until noon),my roommate,1,1,1,1,0,0,0,1,1,,
2006,1rfgxogea3,FOR,Saturday,midday,forward,Tuesday,3,0,15270,Midday (noon - 6 pm),a lot of friends,4,4,4,4,0,0,0,4,4,y,
2006,1rfgxogea3,FOR,Saturday,evening,forward,Tuesday,3,0,9609,Evening (after 6 pm),more friends,4,4,4,2,0,0,0,4,4,y,
2006,1rfgxogea3,FOR,Sunday,morning,forward,Tuesday,2,1,8206,Morning (until noon),a friend,1,1,1,1,0,0,0,1,1,,
2006,1rfgxogea3,FOR,Sunday,midday,forward,Tuesday,2,1,4644,Midday (noon - 6 pm),friends,2,2,2,2,0,0,0,2,2,y,
2006,1rfgxogea3,FOR,Sunday,evening,forward,Tuesday,2,1,4058,Evening (after 6 pm),more friends,2,2,0,2,0,0,0,0,2,y,
2006,1rfgxogea3,FOR,Monday,morning,forward,Tuesday,1,2,11309,Morning (until noon),roommate,1,1,0,1,0,0,0,0,1,,
2006,1rfgxogea3,FOR,Monday,midday,forward,Tuesday,1,2,28951,Midday (noon - 6 pm),"English professor , Sarah , Diego , Asher",4,4,4,4,0,0,0,4,4,,
2006,1rfgxogea3,FOR,Monday,evening,forward,Tuesday,1,2,4016,Evening (after 6 pm),friends,2,0,0,2,0,0,0,0,0,y,
2006,1rfgxogea3,FOR,Tuesday,morning,forward,Tuesday,0,3,16108,Morning (until noon),"Math TA, William, Varun ",3,3,3,3,0,0,0,3,3,,
2006,1rfgxogea3,FOR,Tuesday,midday,forward,Tuesday,0,3,8208,Midday (noon - 6 pm),no one,0,0,0,0,0,0,0,0,0,,
2006,1rfgxogea3,FOR,Tuesday,evening,forward,Tuesday,0,3,8341,Evening (after 6 pm),N/A,0,0,0,0,0,0,0,0,0,,
2007,1zz4hf81yj,BAR,Saturday,evening,backward,Saturday,0,0,22788.8,Evening (after 6 pm),"xie ning, zhuxiye",4,4,4,4,0,0,0,4,4,,
2007,1zz4hf81yj,BAR,Saturday,midday,backward,Saturday,0,0,24866.9,Midday (noon - 6 pm),"anthnony, ruby, daisy, charles",6,3,3,6,0,0,0,3,3,,
2007,1zz4hf81yj,BAR,Saturday,morning,backward,Saturday,0,0,6396.6,Morning (until noon),xiening,2,1,1,2,0,0,0,1,1,,
2007,1zz4hf81yj,BAR,Friday,evening,backward,Saturday,1,1,42205.4,Evening (after 6 pm),"Jacklyn, Rainie, Wang, lisa, Evan, Nate",6,6,2,6,0,0,0,2,6,,
2007,1zz4hf81yj,BAR,Friday,midday,backward,Saturday,1,1,16449.8,Midday (noon - 6 pm),"Nate, julie, josh",3,1,0,3,0,0,0,0,1,,
2007,1zz4hf81yj,BAR,Friday,morning,backward,Saturday,1,1,14319.7,Morning (until noon),"Nathaniel, peter, thomas",3,0,0,3,0,0,0,0,0,,
2007,1zz4hf81yj,BAR,Thursday,evening,backward,Saturday,2,2,12743.2,Evening (after 6 pm),"xiening, zhuxieye, rainie, dan",4,4,1,4,0,0,0,1,4,,
2007,1zz4hf81yj,BAR,Thursday,midday,backward,Saturday,2,2,6858.7,Midday (noon - 6 pm),daisy,1,0,0,1,0,0,0,0,0,,
2007,1zz4hf81yj,BAR,Thursday,morning,backward,Saturday,2,2,11179.8,Morning (until noon),Juan,1,0,0,1,0,0,0,0,0,,
2007,1zz4hf81yj,BAR,Wednesday,evening,backward,Saturday,3,3,7683.7,Evening (after 6 pm),"Nathaniel, ZHuxiye",2,2,0,2,0,0,0,0,2,,
2007,1zz4hf81yj,BAR,Wednesday,midday,backward,Saturday,3,3,17726.5,Midday (noon - 6 pm),"Xining, Zhu xiye",2,0,0,2,0,0,0,0,0,,
2007,1zz4hf81yj,BAR,Wednesday,morning,backward,Saturday,3,3,8789.4,Morning (until noon),"Josh, rainie, fiona",2,0,0,3,0,0,0,0,0,,
2008,2akb7uzu8b,FOR,Monday,morning,forward,Thursday,3,0,27907.2,Morning (until noon),"john, keegan, arina, jyothi, stormy, rohan, morgan, andrew",12,12,12,12,0,0,0,12,12,,
2008,2akb7uzu8b,FOR,Monday,midday,forward,Thursday,3,0,9822.4,Midday (noon - 6 pm),"keegan, arina",3,3,2,3,0,0,0,2,3,,
2008,2akb7uzu8b,FOR,Monday,evening,forward,Thursday,3,0,23027.9,Evening (after 6 pm),"john, keegan, jyothi, rohan, ricky, morgan, andrew",7,5,5,7,0,0,0,5,5,,
2008,2akb7uzu8b,FOR,Tuesday,morning,forward,Thursday,2,1,6940.1,Morning (until noon),"keegan, arina",2,2,0,2,0,0,0,0,2,,
2008,2akb7uzu8b,FOR,Tuesday,midday,forward,Thursday,2,1,4115.4,Midday (noon - 6 pm),"keegan, arina",2,0,0,2,0,0,0,0,0,,
2008,2akb7uzu8b,FOR,Tuesday,evening,forward,Thursday,2,1,5679,Evening (after 6 pm),"keegan, arina, nicole",3,1,1,3,0,0,0,1,1,,
2008,2akb7uzu8b,FOR,Wednesday,morning,forward,Thursday,1,2,5081.4,Morning (until noon),"keegan, arina",2,2,0,2,0,0,0,0,2,,
2008,2akb7uzu8b,FOR,Wednesday,midday,forward,Thursday,1,2,15774.5,Midday (noon - 6 pm),"keegan, arina, john, jyothi, rohan, ricky, morgan, andrew, paul",9,7,4,9,0,0,0,4,7,,
2008,2akb7uzu8b,FOR,Wednesday,evening,forward,Thursday,1,2,3364.2,Evening (after 6 pm),"keegan, arina",2,0,0,2,0,0,0,0,0,,
2008,2akb7uzu8b,FOR,Thursday,morning,forward,Thursday,0,3,5928.4,Morning (until noon),"keegan, arina",2,2,0,2,0,0,0,0,2,,
2008,2akb7uzu8b,FOR,Thursday,midday,forward,Thursday,0,3,7262.6,Midday (noon - 6 pm),no one,0,0,0,0,0,0,0,0,0,,
2008,2akb7uzu8b,FOR,Thursday,evening,forward,Thursday,0,3,9291.8,Evening (after 6 pm),xx,0,0,0,0,0,0,0,0,0,,
2009,3kgmu6wfr9,BAR,Sunday,evening,backward,Sunday,0,0,46063.8,Evening (after 6 pm),"dad, mom, brother",6,6,6,6,0,0,0,6,6,,
2009,3kgmu6wfr9,BAR,Sunday,midday,backward,Sunday,0,0,140282.9,Midday (noon - 6 pm),"dad, mom, brother, the guard of our apartment, the nurse in the dermatology clinic, the pharmacist in the pharmacy",6,3,3,3,3,3,3,0,0,,
2009,3kgmu6wfr9,BAR,Sunday,morning,backward,Sunday,0,0,18090.2,Morning (until noon),"dad, mom, brother",3,0,0,3,0,0,0,0,0,,
2009,3kgmu6wfr9,BAR,Saturday,evening,backward,Sunday,1,1,24309.7,Evening (after 6 pm),"dad, mom, brother",3,3,0,3,0,0,0,0,3,,
2009,3kgmu6wfr9,BAR,Saturday,midday,backward,Sunday,1,1,42330.7,Midday (noon - 6 pm),"dad, mom, brother, clerk at the convenient store",4,1,1,3,1,1,1,0,0,,
2009,3kgmu6wfr9,BAR,Saturday,morning,backward,Sunday,1,1,6927.3,Morning (until noon),"dad, mom, brother",3,0,0,3,0,0,0,0,0,,
2009,3kgmu6wfr9,BAR,Friday,evening,backward,Sunday,2,2,10685.8,Evening (after 6 pm),"dad, mom, brother",3,3,0,3,0,0,0,0,3,,
2009,3kgmu6wfr9,BAR,Friday,midday,backward,Sunday,2,2,6107.2,Midday (noon - 6 pm),"dad, mom, brother",3,0,0,3,0,0,0,0,0,,
2009,3kgmu6wfr9,BAR,Friday,morning,backward,Sunday,2,2,5544.3,Morning (until noon),"dad, mom, brother",3,0,0,3,0,0,0,0,0,,
2009,3kgmu6wfr9,BAR,Thursday,evening,backward,Sunday,3,3,22901.3,Evening (after 6 pm),"dad, mom, brother",3,3,0,3,0,0,0,0,3,,
2009,3kgmu6wfr9,BAR,Thursday,midday,backward,Sunday,3,3,27990.7,Midday (noon - 6 pm),"dad, mom, brother, guard of our apartment, delivery person",5,2,1,3,2,0,2,1,0,,
2009,3kgmu6wfr9,BAR,Thursday,morning,backward,Sunday,3,3,7960.2,Morning (until noon),"dad, mom, brother",3,0,0,3,0,0,0,0,0,,
2010,3vlgdcnaao,FR,FR,FR,FR,Tuesday,0,0,77725,FR,"amal, zaina, aya, hamna, khatija, aisha, anastasia, kid from FYCARE, maaz, mom, dad, zainab, nuha, haniah, nisma, ridah, dalya, selena",13,,13,12,1,1,1,12,12,,
2011,5bsnj96e2t,FR,FR,FR,FR,Wednesday,0,0,139901.7,FR,"My roommate Sarah, My roommate Joaquin, My roommate Keeion, The woman who sits in front of me in KIN352, Quincy in my PSYCH100 discussion, The cashier at AMKO, A cashier at Target in Champaign",7,,7,4,3,3,3,4,4,,
2012,7cmrht26au,BAR,Monday,evening,backward,Monday,0,0,49277.6,Evening (after 6 pm),"No one (as it hasn't been evening, after 6 pm yet)",0,0,0,0,0,0,0,0,0,,
2012,7cmrht26au,BAR,Monday,midday,backward,Monday,0,0,15496.6,Midday (noon - 6 pm),"Mom, Dad",3,3,3,3,0,0,0,3,3,,
2012,7cmrht26au,BAR,Monday,morning,backward,Monday,0,0,8544.4,Morning (until noon),"Mom, Dad",4,2,2,2,0,0,0,2,2,,
2012,7cmrht26au,BAR,Sunday,evening,backward,Monday,1,1,10696.6,Evening (after 6 pm),"Mom, Dad",2,2,0,2,0,0,0,0,2,,
2012,7cmrht26au,BAR,Sunday,midday,backward,Monday,1,1,12211.4,Midday (noon - 6 pm),"Mom, Dad",2,0,0,2,0,0,0,0,0,,
2012,7cmrht26au,BAR,Sunday,morning,backward,Monday,1,1,5836.1,Morning (until noon),"Mom, Dad",2,0,0,2,0,0,0,0,0,,
2012,7cmrht26au,BAR,Saturday,evening,backward,Monday,2,2,11387.8,Evening (after 6 pm),"Mom, Dad",2,2,0,2,0,0,0,0,2,,
2012,7cmrht26au,BAR,Saturday,midday,backward,Monday,2,2,14155.5,Midday (noon - 6 pm),"Sridevi Aunty. Sudhakar Uncle,  Mom, Dad",4,2,2,4,0,0,0,2,2,,
2012,7cmrht26au,BAR,Saturday,morning,backward,Monday,2,2,7853,Morning (until noon),"Mom, Dad",2,0,0,2,0,0,0,0,0,,
2012,7cmrht26au,BAR,Friday,evening,backward,Monday,3,3,5322.7,Evening (after 6 pm),"Mom, Dad",2,2,0,2,0,0,0,0,2,,
2012,7cmrht26au,BAR,Friday,midday,backward,Monday,3,3,4510.3,Midday (noon - 6 pm),"Mom, Dad",2,0,0,2,0,0,0,0,0,,
2012,7cmrht26au,BAR,Friday,morning,backward,Monday,3,3,4918.4,Morning (until noon),"Mom, Dad",2,0,0,2,0,0,0,0,0,,
2013,7n8418fr3k,FOR,Sunday,morning,forward,Wednesday,3,0,33612,Morning (until noon),"Roommate, Friend, Teammates",4,4,4,4,0,0,0,4,4,y,
2013,7n8418fr3k,FOR,Sunday,midday,forward,Wednesday,3,0,16754,Midday (noon - 6 pm),"Roommate, Teammates",3,2,2,3,0,0,0,2,2,y,
2013,7n8418fr3k,FOR,Sunday,evening,forward,Wednesday,3,0,2911,Evening (after 6 pm),Friends,2,2,2,2,0,0,0,2,2,y,
2013,7n8418fr3k,FOR,Monday,morning,forward,Wednesday,2,1,15248,Morning (until noon),"Teacher, Classmates, Roommates",5,5,5,5,0,0,0,5,5,y,
2013,7n8418fr3k,FOR,Monday,midday,forward,Wednesday,2,1,11305,Midday (noon - 6 pm),"Teacher, Classmates, Roomate",4,1,0,4,0,0,0,0,1,y,
2013,7n8418fr3k,FOR,Monday,evening,forward,Wednesday,2,1,10062,Evening (after 6 pm),Roommate,1,0,0,1,0,0,0,0,0,,
2013,7n8418fr3k,FOR,Tuesday,morning,forward,Wednesday,1,2,15387,Morning (until noon),"Teacher, Classmates, Professor, Friend, Roommate",6,6,1,6,0,0,0,1,6,y,
2013,7n8418fr3k,FOR,Tuesday,midday,forward,Wednesday,1,2,11658,Midday (noon - 6 pm),"Teacher, Friend, Roommate, Friend",4,0,0,4,0,0,0,0,0,,
2013,7n8418fr3k,FOR,Tuesday,evening,forward,Wednesday,1,2,5017,Evening (after 6 pm),"Friends, Professor",3,0,0,3,0,0,0,0,0,y,
2013,7n8418fr3k,FOR,Wednesday,morning,forward,Wednesday,0,3,8343,Morning (until noon),"Roommate, Friend, Mom",3,3,0,3,0,0,0,0,3,,
2013,7n8418fr3k,FOR,Wednesday,midday,forward,Wednesday,0,3,6645,Midday (noon - 6 pm),"Friend , Roommate, Mom",3,0,0,3,0,0,0,0,0,,
2013,7n8418fr3k,FOR,Wednesday,evening,forward,Wednesday,0,3,5113,Evening (after 6 pm),Roommate,1,0,0,1,0,0,0,0,0,,
2014,7o0qlspheh,BAR,Sunday,evening,backward,Sunday,0,0,9266.7,Evening (after 6 pm),1 person,1,,1,,1,,,,,,
2014,7o0qlspheh,BAR,Sunday,midday,backward,Sunday,0,0,9406.8,Midday (noon - 6 pm),2 people,2,,2,,2,,,,,,
2014,7o0qlspheh,BAR,Sunday,morning,backward,Sunday,0,0,5742.9,Morning (until noon),0,0,,0,0,0,,,,,,
2014,7o0qlspheh,BAR,Saturday,evening,backward,Sunday,1,1,31602.6,Evening (after 6 pm),0,0,,0,0,0,,,,,,
2014,7o0qlspheh,BAR,Saturday,midday,backward,Sunday,1,1,5877.7,Midday (noon - 6 pm),1,1,,,,,,,,,,y
2014,7o0qlspheh,BAR,Saturday,morning,backward,Sunday,1,1,16460.9,Morning (until noon),3,3,,,,,,,,,,y
2014,7o0qlspheh,BAR,Friday,evening,backward,Sunday,2,2,9249.8,Evening (after 6 pm),0,0,,0,0,0,,,,,,
2014,7o0qlspheh,BAR,Friday,midday,backward,Sunday,2,2,6018.7,Midday (noon - 6 pm),3,3,,,,,,,,,,y
2014,7o0qlspheh,BAR,Friday,morning,backward,Sunday,2,2,29717.6,Morning (until noon),"Lynn, Brian Cudiamat, Olivia Penderenski",3,,3,3,0,,,,,,
2014,7o0qlspheh,BAR,Thursday,evening,backward,Sunday,3,3,111382.9,Evening (after 6 pm),0,0,,0,0,0,,,,,,
2014,7o0qlspheh,BAR,Thursday,midday,backward,Sunday,3,3,22813,Midday (noon - 6 pm),"Brian Cudiamat, Olivia Penderenski, Lynn, Raina ",4,,1,4,0,,,,,,
2014,7o0qlspheh,BAR,Thursday,morning,backward,Sunday,3,3,23690.5,Morning (until noon),"Brian Cudiamat, Olivia Penderenski, Lynn, Raina ",4,,1,4,0,,,,,,
2015,8jnmj5hlhy,FOR,Monday,morning,forward,Thursday,3,0,34954.5,Morning (until noon),"My father, my sister, and my two dogs",4,4,4,2,2,2,2,2,2,,
2015,8jnmj5hlhy,FOR,Monday,midday,forward,Thursday,3,0,38473,Midday (noon - 6 pm),"Vandana Nambiar, a good friend of mine since high school",2,2,2,2,0,0,0,2,2,,
2015,8jnmj5hlhy,FOR,Monday,evening,forward,Thursday,3,0,7275.5,Evening (after 6 pm),Still Vandana,1,1,1,1,0,0,0,1,1,,
2015,8jnmj5hlhy,FOR,Tuesday,morning,forward,Thursday,2,1,40665.7,Morning (until noon),"My cousins who I have not seen in the past few years. Trisha and Tinni. And my aunt and their dog, Stella",5,5,5,5,0,0,0,5,5,y,
2015,8jnmj5hlhy,FOR,Tuesday,midday,forward,Thursday,2,1,27818.9,Midday (noon - 6 pm),Still my cousins and my aunt,3,0,0,3,0,0,0,0,0,y,
2015,8jnmj5hlhy,FOR,Tuesday,evening,forward,Thursday,2,1,10118,Evening (after 6 pm),Vandana Nambiar and Natalie,2,2,1,2,0,0,0,1,2,,
2015,8jnmj5hlhy,FOR,Wednesday,morning,forward,Thursday,1,2,21515.4,Morning (until noon),"My father, sister, and two dogs",2,2,2,2,0,0,0,2,2,,
2015,8jnmj5hlhy,FOR,Wednesday,midday,forward,Thursday,1,2,41876.8,Midday (noon - 6 pm),"two of my best friends (one since elementary school, and the other since high school)",2,0,0,2,0,0,0,0,0,,
2015,8jnmj5hlhy,FOR,Wednesday,evening,forward,Thursday,1,2,5396.5,Evening (after 6 pm),Just my family,2,2,2,0,0,0,0,2,2,y,
2015,8jnmj5hlhy,FOR,Thursday,morning,forward,Thursday,0,3,8132.8,Morning (until noon),Vandana Nambiar,1,1,0,1,0,0,0,0,1,,
2015,8jnmj5hlhy,FOR,Thursday,midday,forward,Thursday,0,3,7680.7,Midday (noon - 6 pm),No one else yet ,0,0,0,0,0,0,0,0,0,,
2015,8jnmj5hlhy,FOR,Thursday,evening,forward,Thursday,0,3,4963.4,Evening (after 6 pm),No one else yet ,0,0,0,0,0,0,0,0,0,,
2016,09u74h9leu,FR,FR,FR,FR,Monday,0,0,149211.5,FR,"movviz, alex, larry, matt, chris, blake, kieran, rebecca, Logan, Alex's Friend, Guy who does magic tricks at nugent, mark, receptionist at dorm , tutor at 24 illini hall , short brown-haired girl on bus , tea club president, zero2one president, zero2one vice president, zero2one secetary, will, shermar , sofia",22,,22,18,4,4,4,18,18,,
2017,40zjdxnpyr,FR,FR,FR,FR,Tuesday,0,0,119911.2,FR,"Aneta (roommate), Zara (roommate), Ivan, Tyler, Monika, Gerald, Cheril, Val, Jade, Leah, Genna, Sophie, Lucy, Jordan, Sharon, barista at Caffe Paradiso, Alec, Cindy",11,,11,10,1,1,1,10,10,,
2018,60ady76pgm,BAR,Monday,evening,backward,Monday,0,0,6381.965,Evening (after 6 pm),0,0,,,,,,,,,,y
2018,60ady76pgm,BAR,Monday,midday,backward,Monday,0,0,10576.53,Midday (noon - 6 pm),0,0,,,,,,,,,,y
2018,60ady76pgm,BAR,Monday,morning,backward,Monday,0,0,4032.55,Morning (until noon),20,20,,,,,,,,,,y
2018,60ady76pgm,BAR,Sunday,evening,backward,Monday,1,1,7940.28,Evening (after 6 pm),30,30,,,,,,,,,,y
2018,60ady76pgm,BAR,Sunday,midday,backward,Monday,1,1,3985.885,Midday (noon - 6 pm),40,40,,,,,,,,,,y
2018,60ady76pgm,BAR,Sunday,morning,backward,Monday,1,1,4195.78,Morning (until noon),50,50,,,,,,,,,,y
2018,60ady76pgm,BAR,Saturday,evening,backward,Monday,2,2,4472.095,Evening (after 6 pm),40,40,,,,,,,,,,y
2018,60ady76pgm,BAR,Saturday,midday,backward,Monday,2,2,2972.9,Midday (noon - 6 pm),40,40,,,,,,,,,,y
2018,60ady76pgm,BAR,Saturday,morning,backward,Monday,2,2,2515.705,Morning (until noon),100,100,,,,,,,,,,y
2018,60ady76pgm,BAR,Friday,evening,backward,Monday,3,3,3882.355,Evening (after 6 pm),50,50,,,,,,,,,,y
2018,60ady76pgm,BAR,Friday,midday,backward,Monday,3,3,2328.45,Midday (noon - 6 pm),40,40,,,,,,,,,,y
2018,60ady76pgm,BAR,Friday,morning,backward,Monday,3,3,2171.085,Morning (until noon),40,40,,,,,,,,,,y
2019,66eaov2hu2,FOR,Tuesday,morning,forward,Friday,3,0,14187.8,Morning (until noon),xx,0,0,0,0,0,0,0,0,0,,
2019,66eaov2hu2,FOR,Tuesday,midday,forward,Friday,3,0,9491.5,Midday (noon - 6 pm),"Danbie , Maddy, Jacki",6,6,6,6,0,0,0,6,6,,
2019,66eaov2hu2,FOR,Tuesday,evening,forward,Friday,3,0,8461.6,Evening (after 6 pm),"Danbie , Maddy, Jacki, Claudia",4,4,3,4,0,0,0,3,4,,
2019,66eaov2hu2,FOR,Wednesday,morning,forward,Friday,2,1,9927.2,Morning (until noon),xx,0,0,0,0,0,0,0,0,0,,
2019,66eaov2hu2,FOR,Wednesday,midday,forward,Friday,2,1,5517.2,Midday (noon - 6 pm),"Danbie, Jacki",3,3,2,3,0,0,0,2,3,,
2019,66eaov2hu2,FOR,Wednesday,evening,forward,Friday,2,1,8063.9,Evening (after 6 pm),"Danbie , Jacki, Maddy",3,1,0,3,0,0,0,0,1,,
2019,66eaov2hu2,FOR,Thursday,morning,forward,Friday,1,2,10719.5,Morning (until noon),xx,0,0,0,0,0,0,0,0,0,,
2019,66eaov2hu2,FOR,Thursday,midday,forward,Friday,1,2,8791.3,Midday (noon - 6 pm),"Danbie, Jacki, Maddy, Claudia",4,4,0,4,0,0,0,0,4,,
2019,66eaov2hu2,FOR,Thursday,evening,forward,Friday,1,2,11326.1,Evening (after 6 pm),"Danbie, Jacki, Maddy, Claudia, Joseph",5,1,1,5,0,0,0,1,1,,
2019,66eaov2hu2,FOR,Friday,morning,forward,Friday,0,3,12368.2,Morning (until noon),xx,0,0,0,0,0,0,0,0,0,,
2019,66eaov2hu2,FOR,Friday,midday,forward,Friday,0,3,4144.3,Midday (noon - 6 pm),"Danny, Wha",2,2,2,2,0,0,0,2,2,,
2019,66eaov2hu2,FOR,Friday,evening,forward,Friday,0,3,5244.7,Evening (after 6 pm),"Danny, Wha, Josh",3,1,1,3,0,0,0,1,1,,
2020,95hojexmbh,FR,FR,FR,FR,Tuesday,0,0,23383.6,FR,"mom, dad, grandmother, restraunt clerk",4,,4,3,1,1,1,3,3,,
2021,167cqpvtha,FOR,Saturday,midday,forward,Tuesday,3,0,41301,Midday (noon - 6 pm),"More people in the hallway, Uber driver, A friend",7,7,7,4,3,3,3,4,4,y,
2021,167cqpvtha,FOR,Saturday,evening,forward,Tuesday,3,0,44411,Evening (after 6 pm),"People working at the  movie theaters, People seeing a movie, Bus driver, People on the bus",7,7,7,0,7,7,7,0,0,y,
2021,167cqpvtha,FOR,Sunday,morning,forward,Tuesday,2,1,13876,Morning (until noon),"Roomate, A girl in the bathroom",2,2,2,1,1,0,0,2,2,,
2021,167cqpvtha,FOR,Sunday,midday,forward,Tuesday,2,1,33707,Midday (noon - 6 pm),"People working at IKE, People eating at IKE, Bus driver, People on the bus",7,7,4,0,7,4,7,0,0,y,
2021,167cqpvtha,FOR,Sunday,evening,forward,Tuesday,2,1,57323,Evening (after 6 pm),"People in Greek Life, those waiting for the bus, On the bus, People at 57 north",8,4,4,0,8,4,4,0,0,y,
2021,167cqpvtha,FOR,Monday,morning,forward,Tuesday,1,2,66458,Morning (until noon),"Bus driver, Those on the bus, Film class people and professor, People working and in both Walgreens and target, People in Starbucks",13,6,3,3,10,0,0,3,6,y,
2021,167cqpvtha,FOR,Monday,midday,forward,Tuesday,1,2,23327,Midday (noon - 6 pm),"Roomate, People in hall hallway, People at 57 north",5,5,0,1,4,0,4,0,1,y,
2021,167cqpvtha,FOR,Monday,evening,forward,Tuesday,1,2,15297,Evening (after 6 pm),"roommate, people in hallway",3,2,0,1,2,0,0,0,2,y,
2021,167cqpvtha,FOR,Tuesday,morning,forward,Tuesday,0,3,29609,Morning (until noon),"Roomate, People on waiting for the bus, On the bus",5,5,0,1,4,0,0,0,5,y,
2021,167cqpvtha,FOR,Tuesday,midday,forward,Tuesday,0,3,20256,Midday (noon - 6 pm),"Those in office hours, People on the bus",4,2,2,0,4,2,0,0,2,y,
2021,167cqpvtha,FOR,Tuesday,evening,forward,Tuesday,0,3,36761,Evening (after 6 pm),n/a,0,0,0,0,0,0,0,0,0,,
2022,423bjp9vgm,FOR,Sunday,morning,forward,Wednesday,3,0,54876,Morning (until noon),"girlfriend, her mom, and brother, my mom, my brother",6,6,6,6,0,0,0,6,6,,
2022,423bjp9vgm,FOR,Sunday,midday,forward,Wednesday,3,0,21125.4,Midday (noon - 6 pm),"girlfriend, mom, brother",3,3,3,3,0,0,0,3,3,,
2022,423bjp9vgm,FOR,Sunday,evening,forward,Wednesday,3,0,8455.7,Evening (after 6 pm),"girlfriend, mom",2,0,0,2,0,0,0,0,0,,
2022,423bjp9vgm,FOR,Monday,morning,forward,Wednesday,2,1,21739,Morning (until noon),"girlfriend, mom, roomate",3,3,1,3,0,0,0,1,3,,
2022,423bjp9vgm,FOR,Monday,midday,forward,Wednesday,2,1,6454.4,Midday (noon - 6 pm),roomate,1,0,0,1,0,0,0,0,0,,
2022,423bjp9vgm,FOR,Monday,evening,forward,Wednesday,2,1,5766.1,Evening (after 6 pm),roomate,1,0,0,1,0,0,0,0,0,,
2022,423bjp9vgm,FOR,Tuesday,morning,forward,Wednesday,1,2,5970.9,Morning (until noon),roomate,1,1,0,1,0,0,0,0,1,,
2022,423bjp9vgm,FOR,Tuesday,midday,forward,Wednesday,1,2,4240.8,Midday (noon - 6 pm),roomate,1,0,0,1,0,0,0,0,0,,
2022,423bjp9vgm,FOR,Tuesday,evening,forward,Wednesday,1,2,4864.4,Evening (after 6 pm),roomate,1,0,0,1,0,0,0,0,0,,
2022,423bjp9vgm,FOR,Wednesday,morning,forward,Wednesday,0,3,11292.3,Morning (until noon),"roommate, class",3,3,2,1,2,2,2,0,1,y,
2022,423bjp9vgm,FOR,Wednesday,midday,forward,Wednesday,0,3,11577.9,Midday (noon - 6 pm),roomate,1,0,0,1,0,0,0,0,0,,
2022,423bjp9vgm,FOR,Wednesday,evening,forward,Wednesday,0,3,7678.6,Evening (after 6 pm),roomate,1,0,0,1,0,0,0,0,0,,
2023,482ch9mlqj,BAR,Monday,evening,backward,Monday,0,0,55168.1,Evening (after 6 pm),"Nathan, Sarah, Danny, RA at lobby desk, Student in elevator with food",7,7,7,4,3,3,3,4,4,,
2023,482ch9mlqj,BAR,Monday,midday,backward,Monday,0,0,10194.1,Midday (noon - 6 pm),"Elie, Noah, Noi, Sarah, Danny, Michael, Abby, Carly, Eric, Ethan, Sammy, Isaac",12,8,8,5,3,3,3,5,5,,
2023,482ch9mlqj,BAR,Monday,morning,backward,Monday,0,0,31731.9,Morning (until noon),"Nathan, Girl in STAT 100, Guy who squeezed through to sit down",4,3,3,2,2,1,1,2,2,,
2023,482ch9mlqj,BAR,Sunday,evening,backward,Monday,1,1,72238.6,Evening (after 6 pm),"Sarah, Danny, Nathan, Vijul, Dovid, Josh, Other Josh, Dovid's young child, Student in orange who I played basketball with, Student in black who I played basketball with, Student in white who I played basketball with, Joey, Ben",13,13,6,13,0,0,0,6,13,,
2023,482ch9mlqj,BAR,Sunday,midday,backward,Monday,1,1,22228.6,Midday (noon - 6 pm),"Sarah, Danny",2,0,0,2,0,0,0,0,0,,
2023,482ch9mlqj,BAR,Sunday,morning,backward,Monday,1,1,5824.3,Morning (until noon),"Sarah, Danny",2,0,0,2,0,0,0,0,0,,
2023,482ch9mlqj,BAR,Saturday,evening,backward,Monday,2,2,64979.3,Evening (after 6 pm),"Nathan, Michael, Sarah, Danny, Noah, Nimrod, Tyler, Eric, Eli",11,11,4,10,1,0,1,4,10,,
2023,482ch9mlqj,BAR,Saturday,midday,backward,Monday,2,2,82985.1,Midday (noon - 6 pm),xx,2,0,2,2,0,0,0,2,0,,
2023,482ch9mlqj,BAR,Saturday,morning,backward,Monday,2,2,7811.7,Morning (until noon),"Sarah, Danny",2,0,0,2,0,0,0,0,0,,
2023,482ch9mlqj,BAR,Friday,evening,backward,Monday,3,3,74010.8,Evening (after 6 pm),"Nimrod, Noah, Joshua, Sarah, Danny, Batsheva, Elie, Ethan, Isaac, Student in UIUC shirt who I played basketball with, Student in UIUC shirt's brother",9,9,3,8,1,0,1,3,8,,
2023,482ch9mlqj,BAR,Friday,midday,backward,Monday,3,3,15084,Midday (noon - 6 pm),"Sarah, Danny",2,0,0,2,0,0,0,0,0,,
2023,482ch9mlqj,BAR,Friday,morning,backward,Monday,3,3,20107.7,Morning (until noon),"Ryan, Girl who sat next to me in STAT 100",2,0,2,1,1,0,0,2,0,,
2024,893jhnv32j,BAR,Wednesday,evening,backward,Wednesday,0,0,9537.6,Evening (after 6 pm),2,2,,,,,,,,,,y
2024,893jhnv32j,BAR,Wednesday,midday,backward,Wednesday,0,0,3870.7,Midday (noon - 6 pm),1,1,,,,,,,,,,y
2024,893jhnv32j,BAR,Wednesday,morning,backward,Wednesday,0,0,3390.7,Morning (until noon),4,4,,,,,,,,,,y
2024,893jhnv32j,BAR,Tuesday,evening,backward,Wednesday,1,1,2765.8,Evening (after 6 pm),3,3,,,,,,,,,,y
2024,893jhnv32j,BAR,Tuesday,midday,backward,Wednesday,1,1,2515.2,Midday (noon - 6 pm),4,4,,,,,,,,,,y
2024,893jhnv32j,BAR,Tuesday,morning,backward,Wednesday,1,1,2457.1,Morning (until noon),1,1,,,,,,,,,,y
2024,893jhnv32j,BAR,Monday,evening,backward,Wednesday,2,2,4608.8,Evening (after 6 pm),4,4,,,,,,,,,,y
2024,893jhnv32j,BAR,Monday,midday,backward,Wednesday,2,2,3416.7,Midday (noon - 6 pm),3,3,,,,,,,,,,y
2024,893jhnv32j,BAR,Monday,morning,backward,Wednesday,2,2,1931.5,Morning (until noon),1,1,,,,,,,,,,y
2024,893jhnv32j,BAR,Sunday,evening,backward,Wednesday,3,3,2833.5,Evening (after 6 pm),4,4,,,,,,,,,,y
2024,893jhnv32j,BAR,Sunday,midday,backward,Wednesday,3,3,2609.2,Midday (noon - 6 pm),3,3,,,,,,,,,,y
2024,893jhnv32j,BAR,Sunday,morning,backward,Wednesday,3,3,1972.1,Morning (until noon),1,1,,,,,,,,,,y
2025,a8cq7f1jat,FR,FR,FR,FR,Tuesday,0,0,52948.5,FR,"My girlfriend, My girlfriend's Dad, Co-worker, Attorney",4,,4,3,1,1,1,3,3,,
2026,aafr9fy4rl,FOR,Thursday,morning,forward,Sunday,3,0,81424,Morning (until noon),"Sophie, Sydney, Isabel, rhia, Micayla, matt",9,9,9,9,0,0,0,9,9,,
2026,aafr9fy4rl,FOR,Thursday,midday,forward,Sunday,3,0,27755,Midday (noon - 6 pm),"Cailey, sam",2,2,2,2,0,0,0,2,2,,
2026,aafr9fy4rl,FOR,Thursday,evening,forward,Sunday,3,0,12649,Evening (after 6 pm),"Sean, Reese, Taylor, ellen",4,3,3,4,0,0,0,3,3,,
2026,aafr9fy4rl,FOR,Friday,morning,forward,Sunday,2,1,8239,Morning (until noon),matt,1,1,1,1,0,0,0,1,1,,
2026,aafr9fy4rl,FOR,Friday,midday,forward,Sunday,2,1,21054,Midday (noon - 6 pm),"Sophie, Isabel, Sydney",3,3,2,3,0,0,0,2,3,,
2026,aafr9fy4rl,FOR,Friday,evening,forward,Sunday,2,1,7624,Evening (after 6 pm),Cailey,1,0,0,1,0,0,0,0,0,,
2026,aafr9fy4rl,FOR,Saturday,morning,forward,Sunday,1,2,19444,Morning (until noon),"Sydney, Isabel, Sophie, sam",4,4,2,4,0,0,0,2,4,,
2026,aafr9fy4rl,FOR,Saturday,midday,forward,Sunday,1,2,4428,Midday (noon - 6 pm),"rhia, Micayla",2,2,0,2,0,0,0,0,2,,
2026,aafr9fy4rl,FOR,Saturday,evening,forward,Sunday,1,2,13432,Evening (after 6 pm),"Rhia, Micayla",2,0,0,2,0,0,0,0,0,,
2026,aafr9fy4rl,FOR,Sunday,morning,forward,Sunday,0,3,46939,Morning (until noon),"matt, Sophie, Sydney",3,3,0,3,0,0,0,0,3,,
2026,aafr9fy4rl,FOR,Sunday,midday,forward,Sunday,0,3,3848,Midday (noon - 6 pm),Isabel,1,0,0,1,0,0,0,0,0,,
2026,aafr9fy4rl,FOR,Sunday,evening,forward,Sunday,0,3,1672,Evening (after 6 pm),"the lady at the checkout at circle k, the lady in the drive through at slim chickens, oberweis employee",3,3,3,0,3,3,3,0,0,,
2027,ak6wgd8bjz,FR,FR,FR,FR,Wednesday,0,0,41076,FR,"I have encountered my roommates, classmates, and my family when I left to come back to school",6,,6,6,0,0,0,6,6,y,
2028,aky1j7y3tv,FR,FR,FR,FR,Wednesday,0,0,18372.8,FR,Nyah,1,,1,1,0,0,0,1,1,,
2029,bofvoehr6b,BAR,Wednesday,evening,backward,Wednesday,0,0,10505.9,Evening (after 6 pm),zero,0,,,,,,,,,,y
2029,bofvoehr6b,BAR,Wednesday,midday,backward,Wednesday,0,0,10276.3,Midday (noon - 6 pm),1,1,,,,,,,,,,y
2029,bofvoehr6b,BAR,Wednesday,morning,backward,Wednesday,0,0,5285.9,Morning (until noon),2,2,,,,,,,,,,y
2029,bofvoehr6b,BAR,Tuesday,evening,backward,Wednesday,1,1,10436.1,Evening (after 6 pm),25,25,,,,,,,,,,y
2029,bofvoehr6b,BAR,Tuesday,midday,backward,Wednesday,1,1,10634.9,Midday (noon - 6 pm),25,25,,,,,,,,,,y
2029,bofvoehr6b,BAR,Tuesday,morning,backward,Wednesday,1,1,3428.3,Morning (until noon),25,25,,,,,,,,,,y
2029,bofvoehr6b,BAR,Monday,evening,backward,Wednesday,2,2,5327.1,Evening (after 6 pm),3,3,,,,,,,,,,y
2029,bofvoehr6b,BAR,Monday,midday,backward,Wednesday,2,2,7084.9,Midday (noon - 6 pm),3,3,,,,,,,,,,y
2029,bofvoehr6b,BAR,Monday,morning,backward,Wednesday,2,2,1676.5,Morning (until noon),3,3,,,,,,,,,,y
2029,bofvoehr6b,BAR,Sunday,evening,backward,Wednesday,3,3,7225.2,Evening (after 6 pm),2,2,,,,,,,,,,y
2029,bofvoehr6b,BAR,Sunday,midday,backward,Wednesday,3,3,5222.1,Midday (noon - 6 pm),1,1,,,,,,,,,,y
2029,bofvoehr6b,BAR,Sunday,morning,backward,Wednesday,3,3,970.4,Morning (until noon),1,1,,,,,,,,,,y
2030,cc3nb92h8k,BAR,Wednesday,evening,backward,Wednesday,0,0,8834.3,Evening (after 6 pm),xx,6,6,6,2,1,1,1,5,5,,
2030,cc3nb92h8k,BAR,Wednesday,midday,backward,Wednesday,0,0,31227.7,Midday (noon - 6 pm),"mom, boyfriend, brother",8,8,6,5,1,1,1,5,7,,
2030,cc3nb92h8k,BAR,Wednesday,morning,backward,Wednesday,0,0,17929.1,Morning (until noon),"chloe, boyfriend",2,1,1,2,0,0,0,1,1,,
2030,cc3nb92h8k,BAR,Tuesday,evening,backward,Wednesday,1,1,45764.6,Evening (after 6 pm),"keyosha, chloe, boyfriend, mom, dad, nesse",3,3,3,6,0,0,0,3,3,,
2030,cc3nb92h8k,BAR,Tuesday,midday,backward,Wednesday,1,1,37346,Midday (noon - 6 pm),"boyfriend, mom, dad, nesse, zaria, mike",4,2,1,4,0,0,0,1,2,,
2030,cc3nb92h8k,BAR,Tuesday,morning,backward,Wednesday,1,1,11527.2,Morning (until noon),"boyfriend, mom",2,0,0,2,0,0,0,0,0,,
2030,cc3nb92h8k,BAR,Monday,evening,backward,Wednesday,2,2,5928.6,Evening (after 6 pm),xx,0,0,0,0,0,0,0,0,0,,
2030,cc3nb92h8k,BAR,Monday,midday,backward,Wednesday,2,2,6711.8,Midday (noon - 6 pm),cousin,1,1,0,1,0,0,0,0,1,,
2030,cc3nb92h8k,BAR,Monday,morning,backward,Wednesday,2,2,28679.5,Morning (until noon),"monae, monique, tiara, grandad, tay tay, dad, boyfriend",7,7,1,7,0,0,0,1,7,,
2030,cc3nb92h8k,BAR,Sunday,evening,backward,Wednesday,3,3,36678.9,Evening (after 6 pm),"mom, malachi, dad, aunt shlelia, aunt melinda, tay tay, ari, damiya",8,8,5,8,0,0,0,5,8,,
2030,cc3nb92h8k,BAR,Sunday,midday,backward,Wednesday,3,3,18831.6,Midday (noon - 6 pm),"mom, malachi, boyfriend, donta mom",4,0,1,4,0,0,0,1,0,,
2030,cc3nb92h8k,BAR,Sunday,morning,backward,Wednesday,3,3,11278.6,Morning (until noon),"mom, boyfriend",2,0,0,2,0,0,0,0,0,,
2031,d4fn3wutu5,FR,FR,FR,FR,Monday,0,0,66399.985,FR,"Bryce, Paradon, Alyssa, Danny, Austin, Ian, Zach, Mom, Dad",9,,9,9,0,0,0,9,9,,
2032,dntpbz88dc,BAR,Monday,evening,backward,Monday,0,0,54562,Evening (after 6 pm),cashier of the store next to a elementary school,4,4,4,3,1,1,1,3,3,,
2032,dntpbz88dc,BAR,Monday,midday,backward,Monday,0,0,24117.2,Midday (noon - 6 pm),uncle,1,1,1,1,0,0,0,1,1,,
2032,dntpbz88dc,BAR,Monday,morning,backward,Monday,0,0,36838.4,Morning (until noon),parents,2,2,2,2,0,0,0,2,2,,
2032,dntpbz88dc,BAR,Sunday,evening,backward,Monday,1,1,11870.6,Evening (after 6 pm),parents,2,2,0,2,0,0,0,0,2,,
2032,dntpbz88dc,BAR,Sunday,midday,backward,Monday,1,1,6214.6,Midday (noon - 6 pm),sisters,2,0,0,2,0,0,0,0,0,y,
2032,dntpbz88dc,BAR,Sunday,morning,backward,Monday,1,1,4430.7,Morning (until noon),family,2,0,0,2,0,0,0,0,0,y,
2032,dntpbz88dc,BAR,Saturday,evening,backward,Monday,2,2,6730,Evening (after 6 pm),family,2,2,0,2,0,0,0,0,2,y,
2032,dntpbz88dc,BAR,Saturday,midday,backward,Monday,2,2,4951.2,Midday (noon - 6 pm),sister,1,0,0,1,0,0,0,0,0,,
2032,dntpbz88dc,BAR,Saturday,morning,backward,Monday,2,2,8759.1,Morning (until noon),none,0,0,0,0,0,0,0,0,0,,
2032,dntpbz88dc,BAR,Friday,evening,backward,Monday,3,3,13473.8,Evening (after 6 pm),family,2,1,0,2,0,0,0,0,1,y,
2032,dntpbz88dc,BAR,Friday,midday,backward,Monday,3,3,5593.1,Midday (noon - 6 pm),family,2,0,0,2,0,0,0,0,0,y,
2032,dntpbz88dc,BAR,Friday,morning,backward,Monday,3,3,4611.6,Morning (until noon),family,2,0,0,2,0,0,0,0,0,y,
2033,e0jkm6a2vz,FR,FR,FR,FR,Wednesday,0,0,141200.5,FR,Izzy,1,,1,1,0,0,0,1,1,,
2034,f09q6c0p6c,BAR,Tuesday,evening,backward,Tuesday,0,0,26583,Evening (after 6 pm),"My Psych class, one friend, people in the dining hall, coworker",6,6,6,2,4,4,4,2,2,y,
2034,f09q6c0p6c,BAR,Tuesday,midday,backward,Tuesday,0,0,18623.7,Midday (noon - 6 pm),"people in the dining hall, psych class, people walking outside",6,6,6,0,6,6,6,0,0,y,
2034,f09q6c0p6c,BAR,Tuesday,morning,backward,Tuesday,0,0,9359,Morning (until noon),"co frind, coworker",3,2,2,3,0,0,0,2,2,,
2034,f09q6c0p6c,BAR,Monday,evening,backward,Tuesday,1,1,14506.6,Evening (after 6 pm),"two coworkers, three friends",5,5,5,5,0,0,0,5,5,,
2034,f09q6c0p6c,BAR,Monday,midday,backward,Tuesday,1,1,17049,Midday (noon - 6 pm),"microbio class, people on bus, people in dining hall",6,1,4,0,6,4,6,0,-5,y,
2034,f09q6c0p6c,BAR,Monday,morning,backward,Tuesday,1,1,6232.5,Morning (until noon),no one,0,0,0,0,0,0,0,0,0,,
2034,f09q6c0p6c,BAR,Sunday,evening,backward,Tuesday,2,2,4587.1,Evening (after 6 pm),no one,0,0,0,0,0,0,0,0,0,,
2034,f09q6c0p6c,BAR,Sunday,midday,backward,Tuesday,2,2,4022.3,Midday (noon - 6 pm),no one,0,0,0,0,0,0,0,0,0,,
2034,f09q6c0p6c,BAR,Sunday,morning,backward,Tuesday,2,2,5223.3,Morning (until noon),dining hall people,2,2,0,0,2,0,2,0,0,y,
2034,f09q6c0p6c,BAR,Saturday,evening,backward,Tuesday,3,3,6154.7,Evening (after 6 pm),four friends,4,4,4,4,0,0,0,4,4,,
2034,f09q6c0p6c,BAR,Saturday,midday,backward,Tuesday,3,3,3671,Midday (noon - 6 pm),no one,0,0,0,0,0,0,0,0,0,,
2034,f09q6c0p6c,BAR,Saturday,morning,backward,Tuesday,3,3,2977.1,Morning (until noon),no one,0,0,0,0,0,0,0,0,0,,
2035,fucy8y1al9,FOR,Tuesday,morning,forward,Friday,3,0,17324,Morning (until noon),"teachers, students, coworkers, boss",13,13,13,13,0,0,0,13,13,y,
2035,fucy8y1al9,FOR,Tuesday,midday,forward,Friday,3,0,21675,Midday (noon - 6 pm),"teacher, students",4,4,4,4,0,0,0,4,4,y,
2035,fucy8y1al9,FOR,Tuesday,evening,forward,Friday,3,0,11868,Evening (after 6 pm),"teacher, students",3,0,0,3,0,0,0,0,0,y,
2035,fucy8y1al9,FOR,Wednesday,morning,forward,Friday,2,1,14319,Morning (until noon),"teacher, students, coworkers",8,8,0,3,0,0,0,0,8,y,
2035,fucy8y1al9,FOR,Wednesday,midday,forward,Friday,2,1,6728,Midday (noon - 6 pm),teacher,1,1,1,1,0,0,0,1,1,,
2035,fucy8y1al9,FOR,Wednesday,evening,forward,Friday,2,1,30869,Evening (after 6 pm),roommates,2,2,2,2,0,0,0,2,2,y,
2035,fucy8y1al9,FOR,Thursday,morning,forward,Friday,1,2,22483,Morning (until noon),"teacher, students, coworkers",5,5,0,5,0,0,0,0,5,y,
2035,fucy8y1al9,FOR,Thursday,midday,forward,Friday,1,2,8114,Midday (noon - 6 pm),"teachers, students",4,0,0,4,0,0,0,0,0,y,
2035,fucy8y1al9,FOR,Thursday,evening,forward,Friday,1,2,9802,Evening (after 6 pm),roommates,2,0,0,2,0,0,0,0,0,y,
2035,fucy8y1al9,FOR,Friday,morning,forward,Friday,0,3,10235,Morning (until noon),"teachers , students, boss",6,6,2,6,0,0,0,2,6,y,
2035,fucy8y1al9,FOR,Friday,midday,forward,Friday,0,3,5464,Midday (noon - 6 pm),teachers,2,0,0,2,0,0,0,0,0,y,
2035,fucy8y1al9,FOR,Friday,evening,forward,Friday,0,3,7226,Evening (after 6 pm),students,2,0,0,2,0,0,0,0,0,y,
2036,h4hpmzt1j8,FR,FR,FR,FR,Sunday,0,0,126427.5,FR,"My cousin, My roomate at illini towers, My RA's , My fiance, My proffessors from all AHS classes, My lunch lady, My roomate right across from my dorm, A perverted black guy, Another perverted black guy, Alot of international students, My friend from medical ethics ",15,,15,10,5,5,5,10,10,y,
2037,jqr66pg2wa,BAR,Tuesday,evening,backward,Tuesday,0,0,22194.3,Evening (after 6 pm),None it is currently 2:31 pm,0,0,0,0,0,0,0,0,0,,
2037,jqr66pg2wa,BAR,Tuesday,midday,backward,Tuesday,0,0,23896.5,Midday (noon - 6 pm),"Rachael, Sean",12,12,12,10,2,2,2,10,10,,
2037,jqr66pg2wa,BAR,Tuesday,morning,backward,Tuesday,0,0,14294.5,Morning (until noon),"Sean, Rachael",2,1,1,2,0,0,0,1,1,,
2037,jqr66pg2wa,BAR,Monday,evening,backward,Tuesday,1,1,69431.1,Evening (after 6 pm),"Sammi, Clara, Sean, Kamila, Zach",5,5,4,5,0,0,0,4,5,,
2037,jqr66pg2wa,BAR,Monday,midday,backward,Tuesday,1,1,10666.4,Midday (noon - 6 pm),Sean,1,0,0,1,0,0,0,0,0,,
2037,jqr66pg2wa,BAR,Monday,morning,backward,Tuesday,1,1,15149.4,Morning (until noon),No one,0,0,0,0,0,0,0,0,0,,
2037,jqr66pg2wa,BAR,Sunday,evening,backward,Tuesday,2,2,38065.5,Evening (after 6 pm),"Emma, Sean",2,2,1,1,0,0,0,1,2,,
2037,jqr66pg2wa,BAR,Sunday,midday,backward,Tuesday,2,2,13946.5,Midday (noon - 6 pm),Sean,1,0,0,1,0,0,0,0,0,,
2037,jqr66pg2wa,BAR,Sunday,morning,backward,Tuesday,2,2,9358.5,Morning (until noon),Sean,1,0,0,1,0,0,0,0,0,,
2037,jqr66pg2wa,BAR,Saturday,evening,backward,Tuesday,3,3,49155.1,Evening (after 6 pm),"Sean, Sammi, Clara, Kamila, Ryan, Alin, Jules, Josie, Matt, Dillon, Zach, Maia, Lucy",13,13,8,13,0,0,0,8,13,,
2037,jqr66pg2wa,BAR,Saturday,midday,backward,Tuesday,3,3,23843.8,Midday (noon - 6 pm),"Sean, Kamila, Rachael, Hitarthee, Ananya",5,1,1,5,0,0,0,1,1,,
2037,jqr66pg2wa,BAR,Saturday,morning,backward,Tuesday,3,3,278814.7,Morning (until noon),Sean,1,0,0,1,0,0,0,0,0,,
2038,k3nhth3dlf,FOR,Saturday,morning,forward,Tuesday,3,0,28670,Morning (until noon),"Mia, Giuls",7,7,7,7,0,0,0,7,7,,
2038,k3nhth3dlf,FOR,Saturday,midday,forward,Tuesday,3,0,20210,Midday (noon - 6 pm),"Mia, Giuls, Liz, Selma, Colleen, Emily",6,4,4,6,0,0,0,4,4,,
2038,k3nhth3dlf,FOR,Saturday,evening,forward,Tuesday,3,0,10046,Evening (after 6 pm),"Mia, Giuls",2,0,0,2,0,0,0,0,0,,
2038,k3nhth3dlf,FOR,Sunday,morning,forward,Tuesday,2,1,7684,Morning (until noon),Mia,1,1,0,1,0,0,0,0,1,,
2038,k3nhth3dlf,FOR,Sunday,midday,forward,Tuesday,2,1,6075,Midday (noon - 6 pm),"Mia, Giuls",2,1,0,1,0,0,0,0,1,,
2038,k3nhth3dlf,FOR,Sunday,evening,forward,Tuesday,2,1,14344,Evening (after 6 pm),"Kaeli, Tiff, Giuls, Mia, Selma, Mackenzie",6,5,4,6,0,0,0,4,5,,
2038,k3nhth3dlf,FOR,Monday,morning,forward,Tuesday,1,2,12170,Morning (until noon),"Mia, Giuls",2,2,0,2,0,0,0,0,2,,
2038,k3nhth3dlf,FOR,Monday,midday,forward,Tuesday,1,2,13260,Midday (noon - 6 pm),"Willis, Mia, Anna",5,3,2,3,0,0,0,2,3,,
2038,k3nhth3dlf,FOR,Monday,evening,forward,Tuesday,1,2,15093,Evening (after 6 pm),"Kiersten, Mia, Giuls, Khalem",4,2,2,4,0,0,0,2,2,,
2038,k3nhth3dlf,FOR,Tuesday,morning,forward,Tuesday,0,3,7615,Morning (until noon),"Mia, Giuls",2,2,0,2,0,0,0,0,2,,
2038,k3nhth3dlf,FOR,Tuesday,midday,forward,Tuesday,0,3,12397,Midday (noon - 6 pm),"Mia, Giuls, Willis, Anna",4,2,0,4,0,0,0,0,2,,
2038,k3nhth3dlf,FOR,Tuesday,evening,forward,Tuesday,0,3,6639,Evening (after 6 pm),"Mia, Giuls",2,0,0,2,0,0,0,0,0,,
2039,k49nk1rrzp,FR,FR,FR,FR,Tuesday,0,0,129624.3,FR,"Angela Sanchez, Paola Duarte, Sheila Sanchez, Tadafe Gbaje, Emily Abu, Ericka Anderson, Natalie Sierra, Sabiha Uddin, Nubaira Kabir, Elina Mehra, Kaiya Bernard, Salifu Habib, Zee Mardeen, Miles Moore, Marshawn Porter, Al Waddell, Jordan Brown, Leojae Steward, Quentin Coleman, Bu-Turab Ahmed, Diego Rodriguez",21,,21,21,0,0,0,21,21,,
2040,l0t206ospn,FR,FR,FR,FR,Saturday,0,0,52409.7,FR,"30 Sorority Sisters, Boyfriend, Mom, Dad, Sister , Uncle, Grandma, Grandpa",7,,7,7,0,0,0,7,7,,
2041,ls7hxeywl0,BAR,Thursday,evening,backward,Thursday,0,0,47419.2,Evening (after 6 pm),"Andy, Young, Olivia, Mom, Esther, James, Steph",11,11,11,10,1,1,1,10,10,,
2041,ls7hxeywl0,BAR,Thursday,midday,backward,Thursday,0,0,34610.4,Midday (noon - 6 pm),"Andy, Olivia, Mom, James, Abbie",7,5,5,7,0,0,0,5,5,,
2041,ls7hxeywl0,BAR,Thursday,morning,backward,Thursday,0,0,21820.8,Morning (until noon),Mom,1,0,0,1,0,0,0,0,0,,
2041,ls7hxeywl0,BAR,Wednesday,evening,backward,Thursday,1,1,96703.5,Evening (after 6 pm),"Steph, James, Olivia, Ethan, Stephanie, Isabelle",6,6,3,6,0,0,0,3,6,,
2041,ls7hxeywl0,BAR,Wednesday,midday,backward,Thursday,1,1,24610.1,Midday (noon - 6 pm),"Steph, James, Olivia, Isabelle",4,1,1,4,0,0,0,1,1,,
2041,ls7hxeywl0,BAR,Wednesday,morning,backward,Thursday,1,1,9097,Morning (until noon),Olivia,1,0,0,1,0,0,0,0,0,,
2041,ls7hxeywl0,BAR,Tuesday,evening,backward,Thursday,2,2,52497.7,Evening (after 6 pm),"Esther, Olivia, James, Steph, Abbie, Andy",6,6,3,6,0,0,0,3,6,,
2041,ls7hxeywl0,BAR,Tuesday,midday,backward,Thursday,2,2,21312,Midday (noon - 6 pm),"Olivia, James, Abbie",3,0,0,3,0,0,0,0,0,,
2041,ls7hxeywl0,BAR,Tuesday,morning,backward,Thursday,2,2,4541,Morning (until noon),no one,0,0,0,0,0,0,0,0,0,,
2041,ls7hxeywl0,BAR,Monday,evening,backward,Thursday,3,3,36287.2,Evening (after 6 pm),"Esther S, James, Abbie, Olivia",4,4,2,0,0,0,0,2,4,,
2041,ls7hxeywl0,BAR,Monday,midday,backward,Thursday,3,3,11745,Midday (noon - 6 pm),"Olivia, Mom",2,0,0,2,0,0,0,0,0,,
2041,ls7hxeywl0,BAR,Monday,morning,backward,Thursday,3,3,4530.4,Morning (until noon),Abbie,1,0,0,1,0,0,0,0,0,,
2042,mh9ow3tqoz,FOR,Tuesday,morning,forward,Friday,3,0,16122.3,Morning (until noon),xx,0,0,0,0,0,0,0,0,0,,
2042,mh9ow3tqoz,FOR,Tuesday,midday,forward,Friday,3,0,79551,Midday (noon - 6 pm),"Kelsey Libert, Edson Alpizar, Kendall Hester, Ajay Madhusudan, Marcus Barnhart",8,8,8,8,0,0,0,8,8,,
2042,mh9ow3tqoz,FOR,Tuesday,evening,forward,Friday,3,0,90619.2,Evening (after 6 pm),"Kelsey Libert, Melissa Manetsch, Edson Alpizar, Kendall Hester, Ajay Madhusudan, Marcus Barnhart",6,5,3,6,0,0,0,3,5,,
2042,mh9ow3tqoz,FOR,Wednesday,morning,forward,Friday,2,1,11393.6,Morning (until noon),xx,0,0,0,0,0,0,0,0,0,,
2042,mh9ow3tqoz,FOR,Wednesday,midday,forward,Friday,2,1,30732.2,Midday (noon - 6 pm),Kelsey Libert,1,1,0,1,0,0,0,0,1,,
2042,mh9ow3tqoz,FOR,Wednesday,evening,forward,Friday,2,1,13385.7,Evening (after 6 pm),"Kelsey Libert, Melissa Manetsch",2,1,1,2,0,0,0,1,1,,
2042,mh9ow3tqoz,FOR,Thursday,morning,forward,Friday,1,2,9261.5,Morning (until noon),xx,0,0,0,0,0,0,0,0,0,,
2042,mh9ow3tqoz,FOR,Thursday,midday,forward,Friday,1,2,18523.7,Midday (noon - 6 pm),Kelsey Libert,1,1,0,1,0,0,0,0,1,,
2042,mh9ow3tqoz,FOR,Thursday,evening,forward,Friday,1,2,17824.9,Evening (after 6 pm),"Kelsey Libert, Melissa Manetsch",2,1,0,2,0,0,0,0,1,,
2042,mh9ow3tqoz,FOR,Friday,morning,forward,Friday,0,3,5198.5,Morning (until noon),xx,0,0,0,0,0,0,0,0,0,,
2042,mh9ow3tqoz,FOR,Friday,midday,forward,Friday,0,3,25785.1,Midday (noon - 6 pm),"Kelsey Libert, Melissa Manetsch",2,2,0,2,0,0,0,0,2,,
2042,mh9ow3tqoz,FOR,Friday,evening,forward,Friday,0,3,12545.1,Evening (after 6 pm),"Kelsey Libert, Melissa Manetsch",2,0,0,2,0,0,0,0,0,,
2043,n5y7l0u7zs,FOR,Thursday,morning,forward,Sunday,3,0,43026.8,Morning (until noon),"Group of coworkers, Roommate and her boyfriend",6,6,6,6,0,0,0,6,6,y,
2043,n5y7l0u7zs,FOR,Thursday,midday,forward,Sunday,3,0,12025.2,Midday (noon - 6 pm),Roommate,1,1,1,1,0,0,0,1,1,,
2043,n5y7l0u7zs,FOR,Thursday,evening,forward,Sunday,3,0,20773.2,Evening (after 6 pm),"Samantha, Roommate, Cashier",3,2,2,2,1,1,1,1,1,,
2043,n5y7l0u7zs,FOR,Friday,morning,forward,Sunday,2,1,10367.3,Morning (until noon),Roommate,1,1,0,1,0,0,0,0,1,,
2043,n5y7l0u7zs,FOR,Friday,midday,forward,Sunday,2,1,12526.7,Midday (noon - 6 pm),Roommate,3,2,2,1,0,0,0,2,2,,
2043,n5y7l0u7zs,FOR,Friday,evening,forward,Sunday,2,1,10586.8,Evening (after 6 pm),"Samantha, Roommate",2,1,1,2,0,0,0,1,1,,
2043,n5y7l0u7zs,FOR,Saturday,morning,forward,Sunday,1,2,8131.3,Morning (until noon),Roommate,1,1,0,1,0,0,0,0,1,,
2043,n5y7l0u7zs,FOR,Saturday,midday,forward,Sunday,1,2,14456.8,Midday (noon - 6 pm),"Roommate, Roommate's Boyfriend",2,1,1,2,0,0,0,1,1,,
2043,n5y7l0u7zs,FOR,Saturday,evening,forward,Sunday,1,2,10469,Evening (after 6 pm),"Roommate, Cashier",2,1,1,1,1,0,1,1,0,,
2043,n5y7l0u7zs,FOR,Sunday,morning,forward,Sunday,0,3,9525.7,Morning (until noon),Roommate,1,1,0,1,0,0,0,0,1,,
2043,n5y7l0u7zs,FOR,Sunday,midday,forward,Sunday,0,3,7465.3,Midday (noon - 6 pm),Roommate,1,1,0,1,0,0,0,0,1,,
2043,n5y7l0u7zs,FOR,Sunday,evening,forward,Sunday,0,3,13326.1,Evening (after 6 pm),"Roommate, Cashier",2,1,1,1,1,0,1,1,0,,
2044,n6pbs2gzet,FR,FR,FR,FR,Monday,0,0,238414,"My mom- Pam, My dad- Scott, Stepbrother- Logan , Step Mom- Loretta , Boyfriend- Tony, Camryn- friend, Miranda- friend, Eric- boyfriends dad, Jen- Boyfriends mom, Sharbel, Diya, Abir, Karabo, Ami, Connor, Johnny , Henry , Liz",,18,,18,18,0,0,0,18,18,,
2045,oju3ht9ju5,FR,FR,FR,FR,Tuesday,0,0,252610,"my roommate, my boyfriend, my parents, my PSYC496 classmates and instructor, my PSYC333 classmates and instructor, my CMN368 classmates and instructor, my ART102 classmates and instructor, friend who drove me to Costco, cashier of Costco, cashier of Target, cashier of County Market, friend went to Costco with me, staff of the LAS office, staff of my apartment",,23,,23,16,7,7,7,16,16,y,
2046,pxowjohpjx,FR,FR,FR,FR,Wednesday,0,0,104742.8,"Haley, Billy, Sam, Kayla, Simon, Jessie, The other student from lab, The graduate student from lab",,8,,8,6,2,2,2,6,6,,
2047,q7a85fz60w,FOR,Thursday,morning,forward,Sunday,3,0,69064.5,Morning (until noon),"My friends from chemistry class at the cbtf , RSO people from a game night, one of my friends who works at the front desk at PAR, friends from a sociology discussion colin and Graham",13,13,13,13,0,0,0,13,13,y,
2047,q7a85fz60w,FOR,Thursday,midday,forward,Sunday,3,0,135956.2,Midday (noon - 6 pm),"Friends from the continuing game night , my girlfriend from a movie night, friends from RSO as well, friends from playing smash in the lobby",7,4,4,7,0,0,0,4,4,,
2047,q7a85fz60w,FOR,Thursday,evening,forward,Sunday,3,0,27671.3,Evening (after 6 pm),"My girlfriend from the movie night, post dinner  hangout with friends",3,2,2,3,0,0,0,2,2,y,
2047,q7a85fz60w,FOR,Friday,morning,forward,Sunday,2,1,87017,Morning (until noon),"my roommate and some of his friends, classmates from my psychopathology class",5,5,5,4,0,0,0,5,5,y,
2047,q7a85fz60w,FOR,Friday,midday,forward,Sunday,2,1,32579.1,Midday (noon - 6 pm),"friends from dinner at isr at 5:30 , my roommate and his friends",5,4,2,5,0,0,0,2,4,y,
2047,q7a85fz60w,FOR,Friday,evening,forward,Sunday,2,1,66976.5,Evening (after 6 pm),friends from dinner at isr ,2,0,0,2,0,0,0,0,0,y,
2047,q7a85fz60w,FOR,Saturday,morning,forward,Sunday,1,2,31333.6,Morning (until noon),"my girlfriend, people i study with, random guys at the bus stop",5,5,3,3,2,2,2,1,3,y,
2047,q7a85fz60w,FOR,Saturday,midday,forward,Sunday,1,2,24206.6,Midday (noon - 6 pm),"Friends from an RSO, people i knew from highschool",4,4,2,4,0,0,0,2,4,y,
2047,q7a85fz60w,FOR,Saturday,evening,forward,Sunday,1,2,28540.2,Evening (after 6 pm),"My girlfriend , People at an IV event ",3,2,2,1,3,1,1,1,1,y,
2047,q7a85fz60w,FOR,Sunday,morning,forward,Sunday,0,3,24157,Morning (until noon),"My girlfriend while at church, my girlfriends roommate and her boyfriend ",3,3,2,3,0,0,0,2,3,,
2047,q7a85fz60w,FOR,Sunday,midday,forward,Sunday,0,3,37264.6,Midday (noon - 6 pm),"my girlfriends roommate and her boyfriend, My girlfriend, My roommate over the phone, rodrick",4,2,1,4,0,0,0,1,2,,
2047,q7a85fz60w,FOR,Sunday,evening,forward,Sunday,0,3,20719.1,Evening (after 6 pm),"Jeremiah from the front desk, random guy i played uno with",2,2,2,1,1,1,1,1,1,,
2048,qgtf5uozaq,FOR,Sunday,morning,forward,Wednesday,3,0,23371.2,Morning (until noon),Nobody,0,0,0,0,0,0,0,0,0,,
2048,qgtf5uozaq,FOR,Sunday,midday,forward,Wednesday,3,0,10109.6,Midday (noon - 6 pm),My mother,1,1,1,1,0,0,0,1,1,,
2048,qgtf5uozaq,FOR,Sunday,evening,forward,Wednesday,3,0,33119.9,Evening (after 6 pm),Nobody,0,0,0,0,0,0,0,0,0,,
2048,qgtf5uozaq,FOR,Monday,morning,forward,Wednesday,2,1,29365.1,Morning (until noon),Sigmund 8:00am,1,1,1,1,0,0,0,1,1,,
2048,qgtf5uozaq,FOR,Monday,midday,forward,Wednesday,2,1,10494.6,Midday (noon - 6 pm),No body,0,0,0,0,0,0,0,0,0,,
2048,qgtf5uozaq,FOR,Monday,evening,forward,Wednesday,2,1,6998.5,Evening (after 6 pm),Nobody,0,0,0,0,0,0,0,0,0,,
2048,qgtf5uozaq,FOR,Tuesday,morning,forward,Wednesday,1,2,9605.8,Morning (until noon),Nobody,0,0,0,0,0,0,0,0,0,,
2048,qgtf5uozaq,FOR,Tuesday,midday,forward,Wednesday,1,2,14477.1,Midday (noon - 6 pm),Zachary,1,1,1,1,0,0,0,1,1,,
2048,qgtf5uozaq,FOR,Tuesday,evening,forward,Wednesday,1,2,11669.6,Evening (after 6 pm),Nobody,0,0,0,0,0,0,0,0,0,,
2048,qgtf5uozaq,FOR,Wednesday,morning,forward,Wednesday,0,3,7090.5,Morning (until noon),Lisa,1,1,1,1,0,0,0,1,1,,
2048,qgtf5uozaq,FOR,Wednesday,midday,forward,Wednesday,0,3,12385,Midday (noon - 6 pm),Nobody,0,0,0,0,0,0,0,0,0,,
2048,qgtf5uozaq,FOR,Wednesday,evening,forward,Wednesday,0,3,18106.4,Evening (after 6 pm),Not evening yet,0,0,0,0,0,0,0,0,0,,
2049,sc7x50n9wh,FR,FR,FR,FR,Tuesday,0,0,44026.8,FR,"Darren , Ishani, Angela, Justin, The people I bowled with in class",6,,6,4,2,2,2,4,4,y,
2050,suxe9dvxuc,BAR,Monday,evening,backward,Monday,0,0,452836.8,Evening (after 6 pm),"Jack, Joey, Varun, Alex, Alex, Saketh, Akarsh, Zach, Sam, Ethan, Drake, Will, Collin, Al, John, Jack, Gianni, Daniel, Jakub, Beni, Aashish, Itzel, Sydney",32,32,32,32,0,0,0,32,32,,
2050,suxe9dvxuc,BAR,Monday,midday,backward,Monday,0,0,52317.3,Midday (noon - 6 pm),"Jack, Joey, Varun, Alex, Alex, Saketh, Akarsh, Zach, Sam, Ethan, Drake, Will, Collin, Al, John, Jack, Nick, Josh",18,7,7,18,0,0,0,7,7,,
2050,suxe9dvxuc,BAR,Monday,morning,backward,Monday,0,0,61294.2,Morning (until noon),"Jack, Joey, Varun, Alex, Alex, Saketh, Akarsh, Zach, Sam, Ethan, Drake, Will, Collin, Al, John, Nick, Josh",17,4,4,17,0,0,0,4,4,,
2050,suxe9dvxuc,BAR,Sunday,evening,backward,Monday,1,1,1012258.2,Evening (after 6 pm),"Sid, Akarsh, Saketh, Austin, Joey, Jack, John, Sam, Alex, Alex, Varun, Will, Collin, Al",14,14,2,14,0,0,0,2,14,,
2050,suxe9dvxuc,BAR,Sunday,midday,backward,Monday,1,1,30904,Midday (noon - 6 pm),"Sid, Akarsh, Saketh, Austin, Joey, Jack, John, Sam, Alex, Alex, Varun, Will, Collin, Al",14,1,1,14,0,0,0,1,1,,
2050,suxe9dvxuc,BAR,Sunday,morning,backward,Monday,1,1,30078.1,Morning (until noon),"Sid, Akarsh, Saketh, Austin, Joey, Jack, John, Sam, Alex, Alex, Varun, Will, Collin, Al, Jacob",15,0,0,15,0,0,0,0,0,,
2050,suxe9dvxuc,BAR,Saturday,evening,backward,Monday,2,2,539605.9,Evening (after 6 pm),"Sid, Akarsh, Saketh, Austin, Varun, Will, Zach, Alex, Alex, Jack, John, Ethan, Drake, Al, Collin, Joey, Jack, Brendan, Jason, Imran, Josh, Nick, Sam, Jill, Mikayla, Ashley, Francesca, Laiba, Itzel, Maryam, Sydney, Florime, Aliyah",33,33,12,33,0,0,0,12,33,,
2050,suxe9dvxuc,BAR,Saturday,midday,backward,Monday,2,2,31614.5,Midday (noon - 6 pm),"Sid, Akarsh, Saketh, Austin, Varun, Will, Zach, Alex, Alex, Jack, John, Ethan, Drake, Al, Collin, Joey, Jack, Imran, Josh, Nick, Sam",21,0,0,21,0,0,0,0,0,,
2050,suxe9dvxuc,BAR,Saturday,morning,backward,Monday,2,2,8605.4,Morning (until noon),"Sid, Akarsh, Saketh, Austin, Varun, Will, Zach, Alex, Alex, Jack, John, Ethan, Drake, Al, Collin, Joey, Jack, Imran, Josh, Nick, Sam",21,0,0,21,0,0,0,0,0,,
2050,suxe9dvxuc,BAR,Friday,evening,backward,Monday,3,3,4742.9,Evening (after 6 pm),"Sid, Akarsh, Saketh, Austin, Varun, Will, Zach, Alex, Alex, Jack, John, Ethan, Drake, Al, Collin, Joey, Jack, Imran, Josh, Nick, Sam",21,21,0,21,0,0,0,0,21,,
2050,suxe9dvxuc,BAR,Friday,midday,backward,Monday,3,3,4514.5,Midday (noon - 6 pm),"Sid, Akarsh, Saketh, Austin, Varun, Will, Zach, Alex, Alex, Jack, John, Ethan, Drake, Al, Collin, Joey, Jack, Imran, Josh, Nick, Sam",21,0,0,21,0,0,0,0,0,,
2050,suxe9dvxuc,BAR,Friday,morning,backward,Monday,3,3,2301.7,Morning (until noon),"Sid, Akarsh, Saketh, Austin, Varun, Will, Zach, Alex, Alex, Jack, John, Ethan, Drake, Al, Collin, Joey, Jack, Imran, Josh, Nick, Sam",21,0,0,21,0,0,0,0,0,,
2051,szxgyx7u2j,BAR,Tuesday,evening,backward,Tuesday,0,0,29354.3,Evening (after 6 pm),"my roommate daisy, my roommate nicole",2,2,2,2,0,0,0,2,2,,
2051,szxgyx7u2j,BAR,Tuesday,midday,backward,Tuesday,0,0,45328.5,Midday (noon - 6 pm),My group consisting of 3 other girls in PSYCH 100 discussion section,3,3,3,3,0,0,0,3,3,,
2051,szxgyx7u2j,BAR,Tuesday,morning,backward,Tuesday,0,0,27440.9,Morning (until noon),"the girl next to me in HDFS 425 , my professor in HDFS 425",2,2,2,1,1,1,1,1,1,,
2051,szxgyx7u2j,BAR,Monday,evening,backward,Tuesday,1,1,34059.6,Evening (after 6 pm),"Daisy my roommate, Nicole my roommate",2,2,0,2,0,0,0,0,2,,
2051,szxgyx7u2j,BAR,Monday,midday,backward,Tuesday,1,1,16262.6,Midday (noon - 6 pm),"Daisy my roommate, Nicole my roommate",2,0,0,2,0,0,0,0,0,,
2051,szxgyx7u2j,BAR,Monday,morning,backward,Tuesday,1,1,8694.5,Morning (until noon),"Boris my boyfriend, My boyfriends mom",2,0,0,2,0,0,0,0,0,,
2051,szxgyx7u2j,BAR,Sunday,evening,backward,Tuesday,2,2,17257.5,Evening (after 6 pm),"Nicole my roommate, Daisy my roommate, Boris my boyfriend",3,3,2,3,0,0,0,2,3,,
2051,szxgyx7u2j,BAR,Sunday,midday,backward,Tuesday,2,2,10726.8,Midday (noon - 6 pm),Boris my boyfriend,1,1,0,1,0,0,0,0,1,,
2051,szxgyx7u2j,BAR,Sunday,morning,backward,Tuesday,2,2,6667.9,Morning (until noon),Boris my boyfriend,1,0,0,1,0,0,0,0,0,,
2051,szxgyx7u2j,BAR,Saturday,evening,backward,Tuesday,3,3,274286.8,Evening (after 6 pm),"Boris my boyfriend, daisy my roommate, nicole my roommate",3,3,1,3,0,0,0,1,3,,
2051,szxgyx7u2j,BAR,Saturday,midday,backward,Tuesday,3,3,69472.5,Midday (noon - 6 pm),"Boris my boyfriend, daisy my roommate, nicole my roommate",3,0,0,3,0,0,0,0,0,,
2051,szxgyx7u2j,BAR,Saturday,morning,backward,Tuesday,3,3,23046.1,Morning (until noon),"Boris my boyfriend, daisy my roommate, nicole my roommate",3,0,0,3,0,0,0,0,0,,
2052,t4jephkyvd,BAR,Tuesday,evening,backward,Tuesday,0,0,17945,Evening (after 6 pm),"mom, sister, brother",3,3,3,3,0,0,0,3,3,,
2052,t4jephkyvd,BAR,Tuesday,midday,backward,Tuesday,0,0,11700,Midday (noon - 6 pm),none,0,0,0,0,0,0,0,0,0,,
2052,t4jephkyvd,BAR,Tuesday,morning,backward,Tuesday,0,0,4102,Morning (until noon),none,0,0,0,0,0,0,0,0,0,,
2052,t4jephkyvd,BAR,Monday,evening,backward,Tuesday,1,1,12384,Evening (after 6 pm),I don't remember,0,0,0,0,0,0,0,0,0,,
2052,t4jephkyvd,BAR,Monday,midday,backward,Tuesday,1,1,9028,Midday (noon - 6 pm),I don't remember,0,0,0,0,0,0,0,0,0,,
2052,t4jephkyvd,BAR,Monday,morning,backward,Tuesday,1,1,8807,Morning (until noon),I don't remember,0,0,0,0,0,0,0,0,0,,
2052,t4jephkyvd,BAR,Sunday,evening,backward,Tuesday,2,2,9600,Evening (after 6 pm),I don't remember,0,0,0,0,0,0,0,0,0,,
2052,t4jephkyvd,BAR,Sunday,midday,backward,Tuesday,2,2,6598,Midday (noon - 6 pm),I don't remember,0,0,0,0,0,0,0,0,0,,
2052,t4jephkyvd,BAR,Sunday,morning,backward,Tuesday,2,2,6689,Morning (until noon),I don't remember,0,0,0,0,0,0,0,0,0,,
2052,t4jephkyvd,BAR,Saturday,evening,backward,Tuesday,3,3,9439,Evening (after 6 pm),I don't remember,0,0,0,0,0,0,0,0,0,,
2052,t4jephkyvd,BAR,Saturday,midday,backward,Tuesday,3,3,7282,Midday (noon - 6 pm),I don't remember,0,0,0,0,0,0,0,0,0,,
2052,t4jephkyvd,BAR,Saturday,morning,backward,Tuesday,3,3,9920,Morning (until noon),I don't remember,0,0,0,0,0,0,0,0,0,,
2053,tjhp8khlt6,FOR,Monday,morning,forward,Thursday,3,0,19378.4,Morning (until noon),my mother,4,4,4,4,0,0,0,4,4,,
2053,tjhp8khlt6,FOR,Monday,midday,forward,Thursday,3,0,13933.3,Midday (noon - 6 pm),no,0,0,0,0,0,0,0,0,0,,
2053,tjhp8khlt6,FOR,Monday,evening,forward,Thursday,3,0,5420.8,Evening (after 6 pm),my parents,2,2,2,2,0,0,0,2,2,,
2053,tjhp8khlt6,FOR,Tuesday,morning,forward,Thursday,2,1,10246.8,Morning (until noon),my parents,2,2,0,2,0,0,0,0,2,,
2053,tjhp8khlt6,FOR,Tuesday,midday,forward,Thursday,2,1,9925.9,Midday (noon - 6 pm),no,0,0,0,0,0,0,0,0,0,,
2053,tjhp8khlt6,FOR,Tuesday,evening,forward,Thursday,2,1,2581.9,Evening (after 6 pm),my parents,2,0,0,2,0,0,0,0,0,,
2053,tjhp8khlt6,FOR,Wednesday,morning,forward,Thursday,1,2,2966.3,Morning (until noon),my parents,2,2,0,2,0,0,0,0,2,,
2053,tjhp8khlt6,FOR,Wednesday,midday,forward,Thursday,1,2,6270.4,Midday (noon - 6 pm),a friend,1,1,1,1,0,0,0,1,1,,
2053,tjhp8khlt6,FOR,Wednesday,evening,forward,Thursday,1,2,2094.2,Evening (after 6 pm),my parents,2,0,0,2,0,0,0,0,0,,
2053,tjhp8khlt6,FOR,Thursday,morning,forward,Thursday,0,3,4054.2,Morning (until noon),my parents,2,2,0,2,0,0,0,0,2,,
2053,tjhp8khlt6,FOR,Thursday,midday,forward,Thursday,0,3,3158.3,Midday (noon - 6 pm),no,0,0,0,0,0,0,0,0,0,,
2053,tjhp8khlt6,FOR,Thursday,evening,forward,Thursday,0,3,1622.7,Evening (after 6 pm),my parents,2,0,0,2,0,0,0,0,0,,
2054,u3mxx25fmm,FR,FR,FR,FR,Sunday,0,0,76010.6,FR,"Amy, Richard, Diana, Eric, Ethan, Eric W, Meghan, Erin H, Sarah, Will, Aanan, Kacper, Adam, Josh, Nolan, Ellice, Jace, Becky, McKayla, Madison",10,,10,10,0,0,0,10,10,,
2055,utwa6f950z,FOR,Saturday,morning,forward,Tuesday,3,0,22543.3,Morning (until noon),Debbie,15,15,15,15,0,0,0,15,15,,
2055,utwa6f950z,FOR,Saturday,midday,forward,Tuesday,3,0,14193.1,Midday (noon - 6 pm),"Joanne, Gracie, Maggie",3,0,0,3,0,0,0,0,0,,
2055,utwa6f950z,FOR,Saturday,evening,forward,Tuesday,3,0,9444.9,Evening (after 6 pm),"Alberto, Stavros",2,2,2,2,0,0,0,2,2,,
2055,utwa6f950z,FOR,Sunday,morning,forward,Tuesday,2,1,30649.6,Morning (until noon),"Adam, Joanne, Shaan, Eric, Debbie, Deborah",6,6,4,6,0,0,0,4,6,,
2055,utwa6f950z,FOR,Sunday,midday,forward,Tuesday,2,1,11600.2,Midday (noon - 6 pm),Joanne,1,1,1,1,0,0,0,1,1,,
2055,utwa6f950z,FOR,Sunday,evening,forward,Tuesday,2,1,12678.3,Evening (after 6 pm),"Bridget, Julia, Chloe, Shaan",4,3,3,0,0,0,0,3,3,,
2055,utwa6f950z,FOR,Monday,morning,forward,Tuesday,1,2,15513.4,Morning (until noon),"Bridget, Julia, Chloe",3,2,1,3,0,0,0,1,2,,
2055,utwa6f950z,FOR,Monday,midday,forward,Tuesday,1,2,6854.9,Midday (noon - 6 pm),"Calif, Joanne",2,0,0,2,0,0,0,0,0,,
2055,utwa6f950z,FOR,Monday,evening,forward,Tuesday,1,2,30988.4,Evening (after 6 pm),"Joanne, Calif, Audrey, Hannah, Nicole, David, Matthew, Andie, Jenna, Seth",10,8,7,10,0,0,0,7,8,,
2055,utwa6f950z,FOR,Tuesday,morning,forward,Tuesday,0,3,6267.1,Morning (until noon),Bridget,1,1,1,1,0,0,0,1,1,,
2055,utwa6f950z,FOR,Tuesday,midday,forward,Tuesday,0,3,8978.9,Midday (noon - 6 pm),"Bridget, Chloe, Deborah, Julia",4,3,0,4,0,0,0,0,3,,
2055,utwa6f950z,FOR,Tuesday,evening,forward,Tuesday,0,3,8195.2,Evening (after 6 pm),N/a,0,0,0,0,0,0,0,0,0,,
2056,vflcr2wl32,FOR,Monday,morning,forward,Thursday,3,0,21799.8,Morning (until noon),"my roomate, janay, makayla",3,3,3,3,0,0,0,3,3,,
2056,vflcr2wl32,FOR,Monday,midday,forward,Thursday,3,0,15225.4,Midday (noon - 6 pm),"ari, nevin",12,12,12,12,0,0,0,12,12,,
2056,vflcr2wl32,FOR,Monday,evening,forward,Thursday,3,0,12279.5,Evening (after 6 pm),elijah,1,1,1,1,0,0,0,1,1,,
2056,vflcr2wl32,FOR,Tuesday,morning,forward,Thursday,2,1,31474.6,Morning (until noon),"my roomate, rhaniya, dining hall servers, dad, brother, mom, cousin, cousins friend, aunt",10,10,9,8,2,2,2,7,8,y,
2056,vflcr2wl32,FOR,Tuesday,midday,forward,Thursday,2,1,14962.6,Midday (noon - 6 pm),"dad, brother, mom",3,3,0,3,0,0,0,0,3,,
2056,vflcr2wl32,FOR,Tuesday,evening,forward,Thursday,2,1,10890.4,Evening (after 6 pm),"aunt, cousin, cousins friend",3,3,3,3,0,0,0,3,3,,
2056,vflcr2wl32,FOR,Wednesday,morning,forward,Thursday,1,2,8594.6,Morning (until noon),"mom, dad, brother",3,3,0,3,0,0,0,0,3,,
2056,vflcr2wl32,FOR,Wednesday,midday,forward,Thursday,1,2,4565.8,Midday (noon - 6 pm),"mom, dad, brother",3,0,0,3,0,0,0,0,0,,
2056,vflcr2wl32,FOR,Wednesday,evening,forward,Thursday,1,2,4825.9,Evening (after 6 pm),"mom, dad, brother",3,0,0,3,0,0,0,0,0,,
2056,vflcr2wl32,FOR,Thursday,morning,forward,Thursday,0,3,6253.3,Morning (until noon),"mom, dad",2,2,0,2,0,0,0,0,2,,
2056,vflcr2wl32,FOR,Thursday,midday,forward,Thursday,0,3,7979.4,Midday (noon - 6 pm),"mom, dad, brother",3,1,1,3,0,0,0,1,1,,
2056,vflcr2wl32,FOR,Thursday,evening,forward,Thursday,0,3,4355.9,Evening (after 6 pm),"mom, dad, brother",3,0,0,3,0,0,0,0,0,,
2057,vlysrlkafp,FOR,Tuesday,morning,forward,Friday,3,0,20346.2,Morning (until noon),"sammie kapsis, eirene kapsis, vaso kapsis, dimitris kapsis",8,8,8,8,0,0,0,8,8,,
2057,vlysrlkafp,FOR,Tuesday,midday,forward,Friday,3,0,18944.5,Midday (noon - 6 pm),"sammie kapsis, eirene kapsis, vaso kapsis, dimitris kapsis",4,4,4,4,0,0,0,4,4,,
2057,vlysrlkafp,FOR,Tuesday,evening,forward,Friday,3,0,8524,Evening (after 6 pm),"sammie kapsis, eirene kapsis, vaso kapsis, dimitris kapsis",4,0,0,4,0,0,0,0,0,,
2057,vlysrlkafp,FOR,Wednesday,morning,forward,Friday,2,1,4747.9,Morning (until noon),"sammie kapsis, eirene kapsis, vaso kapsis, dimitris kapsis",4,4,0,4,0,0,0,0,4,,
2057,vlysrlkafp,FOR,Wednesday,midday,forward,Friday,2,1,3078,Midday (noon - 6 pm),"sammie kapsis, eirene kapsis, vaso kapsis, dimitris kapsis",5,1,1,4,0,0,0,1,1,,
2057,vlysrlkafp,FOR,Wednesday,evening,forward,Friday,2,1,1896.5,Evening (after 6 pm),"sammie kapsis, eirene kapsis, vaso kapsis, dimitris kapsis",4,0,0,4,0,0,0,0,0,,
2057,vlysrlkafp,FOR,Thursday,morning,forward,Friday,1,2,2860.3,Morning (until noon),"sammie kapsis, eirene kapsis, vaso kapsis, dimitris kapsis",4,4,0,4,0,0,0,0,4,,
2057,vlysrlkafp,FOR,Thursday,midday,forward,Friday,1,2,1328.6,Midday (noon - 6 pm),"sammie kapsis, eirene kapsis, vaso kapsis, dimitris kapsis",4,0,0,4,0,0,0,0,0,,
2057,vlysrlkafp,FOR,Thursday,evening,forward,Friday,1,2,1850.3,Evening (after 6 pm),"sammie kapsis, eirene kapsis, vaso kapsis, dimitris kapsis",4,0,0,4,0,0,0,0,0,,
2057,vlysrlkafp,FOR,Friday,morning,forward,Friday,0,3,28069.8,Morning (until noon),"tom, karen, carolynn, britanny, jade, siona",6,6,6,6,0,0,0,6,6,,
2057,vlysrlkafp,FOR,Friday,midday,forward,Friday,0,3,10648.7,Midday (noon - 6 pm),"siona, tom",2,2,2,2,0,0,0,2,2,,
2057,vlysrlkafp,FOR,Friday,evening,forward,Friday,0,3,4457.9,Evening (after 6 pm),siona,1,0,0,1,0,0,0,0,0,,
2058,vyft1gd8xk,FOR,Friday,morning,forward,Monday,3,0,25800.6,Morning (until noon),"Roommate, girlfriend",4,4,4,4,0,0,0,4,4,,
2058,vyft1gd8xk,FOR,Friday,midday,forward,Monday,3,0,8637.6,Midday (noon - 6 pm),girlfriend,6,6,2,6,0,0,0,2,6,,
2058,vyft1gd8xk,FOR,Friday,evening,forward,Monday,3,0,5161.1,Evening (after 6 pm),"Mom, dad, brother",3,3,3,3,0,0,0,3,3,,
2058,vyft1gd8xk,FOR,Saturday,morning,forward,Monday,2,1,17579,Morning (until noon),"Mom, dad, brother",3,3,0,3,0,0,0,0,3,,
2058,vyft1gd8xk,FOR,Saturday,midday,forward,Monday,2,1,3995.2,Midday (noon - 6 pm),"Mom, dad, brother",4,1,1,4,0,0,0,1,1,,
2058,vyft1gd8xk,FOR,Saturday,evening,forward,Monday,2,1,7164.7,Evening (after 6 pm),"mom, brother, dad",3,0,0,3,0,0,0,0,0,,
2058,vyft1gd8xk,FOR,Sunday,morning,forward,Monday,1,2,4246,Morning (until noon),girlfriend,1,1,0,1,0,0,0,0,1,,
2058,vyft1gd8xk,FOR,Sunday,midday,forward,Monday,1,2,5603,Midday (noon - 6 pm),girlfriend,1,0,0,1,0,0,0,0,0,,
2058,vyft1gd8xk,FOR,Sunday,evening,forward,Monday,1,2,26386,Evening (after 6 pm),girlfriend,1,0,0,1,0,0,0,0,0,,
2058,vyft1gd8xk,FOR,Monday,morning,forward,Monday,0,3,24170.9,Morning (until noon),"girlfriend, roommate, roommate boyfriend",5,5,1,3,0,0,0,1,5,,
2058,vyft1gd8xk,FOR,Monday,midday,forward,Monday,0,3,13484.2,Midday (noon - 6 pm),"roommate, people at mia zas",3,2,2,1,2,2,2,0,0,y,
2058,vyft1gd8xk,FOR,Monday,evening,forward,Monday,0,3,4791.3,Evening (after 6 pm),no one,0,0,0,0,0,0,0,0,0,,
2059,vygdoqcgc2,FOR,Saturday,morning,forward,Tuesday,3,0,13448.9,Morning (until noon),"Merritt, Jack, Vilk, Rob",4,4,4,4,0,0,0,4,4,,
2059,vygdoqcgc2,FOR,Saturday,midday,forward,Tuesday,3,0,36010.2,Midday (noon - 6 pm),"Jack, Vilk, Rob, Connor, Ash, Merritt, AF, Eliza, Jacob",9,5,5,9,0,0,0,5,5,,
2059,vygdoqcgc2,FOR,Saturday,evening,forward,Tuesday,3,0,100061.7,Evening (after 6 pm),"Jack, Vilk, Rob, AF, Eliza, Jason, Jimmy, Connor, Carl, Jacob, Yavuz, Krish, Sam, Arturo, Moe, Dave, David, plus people at the party who's names I don't know",19,12,12,17,2,2,2,10,10,y,
2059,vygdoqcgc2,FOR,Sunday,morning,forward,Tuesday,2,1,39621.2,Morning (until noon),People who were lifting weights at the rec center,2,2,2,0,2,2,2,0,0,y,
2059,vygdoqcgc2,FOR,Sunday,midday,forward,Tuesday,2,1,26663.4,Midday (noon - 6 pm),"Jimmy, Jacob, Vilk, Connor, Ash, AF, Eliza, Merritt",8,5,4,8,0,0,0,4,5,,
2059,vygdoqcgc2,FOR,Sunday,evening,forward,Tuesday,2,1,11789.9,Evening (after 6 pm),"Library goers, Merritt",3,2,2,1,2,1,1,1,1,y,
2059,vygdoqcgc2,FOR,Monday,morning,forward,Tuesday,1,2,24763.6,Morning (until noon),"Vilk, gym goers",3,3,2,1,2,2,2,0,1,y,
2059,vygdoqcgc2,FOR,Monday,midday,forward,Tuesday,1,2,11739.9,Midday (noon - 6 pm),"Merritt, Jack, library goers",4,3,0,2,2,0,0,0,3,y,
2059,vygdoqcgc2,FOR,Monday,evening,forward,Tuesday,1,2,19243.3,Evening (after 6 pm),"Jack, AF, Eliza, Jason",4,4,2,4,0,0,0,2,4,,
2059,vygdoqcgc2,FOR,Tuesday,morning,forward,Tuesday,0,3,26092,Morning (until noon),"Gym goers, Vilk",3,3,0,1,2,0,2,0,1,y,
2059,vygdoqcgc2,FOR,Tuesday,midday,forward,Tuesday,0,3,14313.8,Midday (noon - 6 pm),"Af, Eliza, Jack, Merritt, Library goers",6,6,0,4,2,0,0,0,6,y,
2059,vygdoqcgc2,FOR,Tuesday,evening,forward,Tuesday,0,3,77150,Evening (after 6 pm),"Af, Eliza, Jack, library goers (Not currently 6PM but will be staying at library through then)",0,0,0,0,0,0,0,0,0,,
2060,w9px6acjy4,FOR,Friday,morning,forward,Monday,3,0,8548,Morning (until noon),family,4,4,4,4,0,0,0,4,4,y,
2060,w9px6acjy4,FOR,Friday,midday,forward,Monday,3,0,5585,Midday (noon - 6 pm),family,5,1,1,4,0,0,0,1,1,,
2060,w9px6acjy4,FOR,Friday,evening,forward,Monday,3,0,8166,Evening (after 6 pm),family,5,1,1,4,0,0,0,1,1,,
2060,w9px6acjy4,FOR,Saturday,morning,forward,Monday,2,1,4034,Morning (until noon),family,4,4,0,4,0,0,0,0,4,,
2060,w9px6acjy4,FOR,Saturday,midday,forward,Monday,2,1,8477,Midday (noon - 6 pm),other humans,2,2,2,0,2,2,2,0,0,y,
2060,w9px6acjy4,FOR,Saturday,evening,forward,Monday,2,1,15989,Evening (after 6 pm),random people on train,2,2,2,0,2,2,2,0,0,y,
2060,w9px6acjy4,FOR,Sunday,morning,forward,Monday,1,2,5855,Morning (until noon),idk,0,0,0,0,0,0,0,0,0,,
2060,w9px6acjy4,FOR,Sunday,midday,forward,Monday,1,2,3054,Midday (noon - 6 pm),idk,0,0,0,0,0,0,0,0,0,,
2060,w9px6acjy4,FOR,Sunday,evening,forward,Monday,1,2,5564,Evening (after 6 pm),more family,2,2,2,2,0,0,0,2,2,y,
2060,w9px6acjy4,FOR,Monday,morning,forward,Monday,0,3,15821,Morning (until noon),"mother, brother, grandma",3,3,1,3,0,0,0,1,3,,
2060,w9px6acjy4,FOR,Monday,midday,forward,Monday,0,3,10427,Midday (noon - 6 pm),"mother, brother, grandma",3,0,0,3,0,0,0,0,0,,
2060,w9px6acjy4,FOR,Monday,evening,forward,Monday,0,3,11588,Evening (after 6 pm),air,1,1,1,1,0,0,0,1,1,,
2061,wj8o80agqf,FOR,Sunday,morning,forward,Wednesday,3,0,17532.2,Morning (until noon),"Mom, Dad",5,5,5,5,0,0,0,5,5,,
2061,wj8o80agqf,FOR,Sunday,midday,forward,Wednesday,3,0,47302.5,Midday (noon - 6 pm),mom,2,0,0,2,0,0,0,0,0,,
2061,wj8o80agqf,FOR,Sunday,evening,forward,Wednesday,3,0,27596.9,Evening (after 6 pm),"Anna,Maya, Dom",3,1,1,3,0,0,0,1,1,,
2061,wj8o80agqf,FOR,Monday,morning,forward,Wednesday,2,1,21355.1,Morning (until noon),"Anna,Maya,Dom",3,3,0,3,0,0,0,0,3,,
2061,wj8o80agqf,FOR,Monday,midday,forward,Wednesday,2,1,25494.2,Midday (noon - 6 pm),"Anna, Maya, Dom",3,0,0,3,0,0,0,0,0,,
2061,wj8o80agqf,FOR,Monday,evening,forward,Wednesday,2,1,9017.9,Evening (after 6 pm),"Anna, Maya, Dom",3,1,1,3,0,0,0,1,1,,
2061,wj8o80agqf,FOR,Tuesday,morning,forward,Wednesday,1,2,57591.9,Morning (until noon),"Anna,Maya,Dom",3,3,0,3,0,0,0,0,3,,
2061,wj8o80agqf,FOR,Tuesday,midday,forward,Wednesday,1,2,16602,Midday (noon - 6 pm),"Anna,Maya,Dom, Grace, Bre",5,2,2,5,0,0,0,2,2,,
2061,wj8o80agqf,FOR,Tuesday,evening,forward,Wednesday,1,2,12692.5,Evening (after 6 pm),"Anna, Maya, Dom, Scoot",4,1,1,4,0,0,0,1,1,,
2061,wj8o80agqf,FOR,Wednesday,morning,forward,Wednesday,0,3,10062.6,Morning (until noon),"Anna, Maya, Dom",3,3,0,3,0,0,0,0,3,,
2061,wj8o80agqf,FOR,Wednesday,midday,forward,Wednesday,0,3,11239,Midday (noon - 6 pm),"Anna, Maya, Dom",3,0,0,3,0,0,0,0,0,,
2061,wj8o80agqf,FOR,Wednesday,evening,forward,Wednesday,0,3,7978.5,Evening (after 6 pm),"Anna,Maya, DOm",3,0,0,3,0,0,0,0,0,,
2062,wkfv7fdsqb,FR,FR,FR,FR,Wednesday,0,0,78236.4,FR,"My roommate, Kylie, and other girls within my sorority house that I live in. I also have in-person classes where I encounter other students/peers and instructors.",6,,,4,2,2,2,4,4,y,
2063,x7p7bhawa3,FR,FR,FR,FR,Saturday,0,0,102521.8,FR,"Donald, Alex, Mekhi, Xavier , Janna, Jake, Terry, Nicole, Hailey, Guy at gym I lifted with, Front desk person at dorm",11,,11,9,2,2,2,9,9,,
2064,xuvk264um6,BAR,Sunday,evening,backward,Sunday,0,0,32431.3,Evening (after 6 pm),"Extended time with many family members. Father, mother, sister, two brothers. All within 10 feet of me for a few hours. I also went to a party with 50+ people there",55,55,55,15,40,40,40,15,15,,
2064,xuvk264um6,BAR,Sunday,midday,backward,Sunday,0,0,18837.3,Midday (noon - 6 pm),Nobody,0,0,0,0,0,0,0,0,0,,
2064,xuvk264um6,BAR,Sunday,morning,backward,Sunday,0,0,9787.9,Morning (until noon),Slept until 12:30,0,0,0,0,0,0,0,0,0,,
2064,xuvk264um6,BAR,Saturday,evening,backward,Sunday,1,1,43408.6,Evening (after 6 pm),"Roomate, 5 minutes of talking before we went to our own rooms, Sister, drove me back to my apartment, 5 minute drive",2,2,0,2,0,0,0,0,2,,
2064,xuvk264um6,BAR,Saturday,midday,backward,Sunday,1,1,27679.4,Midday (noon - 6 pm),"Brother, Sister in a hotel room with me. We all sat a good distance away from each other, but would occasionally get close.",2,1,0,2,0,0,0,0,1,,
2064,xuvk264um6,BAR,Saturday,morning,backward,Sunday,1,1,10122.5,Morning (until noon),Brother and sister in a hotel room. ,2,0,0,2,0,0,0,0,0,,
2064,xuvk264um6,BAR,Friday,evening,backward,Sunday,2,2,102512.9,Evening (after 6 pm),Dont remember.,0,0,0,0,0,0,0,0,0,,
2064,xuvk264um6,BAR,Friday,midday,backward,Sunday,2,2,5281.5,Midday (noon - 6 pm),Dont remember.,0,0,0,0,0,0,0,0,0,,
2064,xuvk264um6,BAR,Friday,morning,backward,Sunday,2,2,8053.6,Morning (until noon),I slept until about noon,0,0,0,0,0,0,0,0,0,,
2064,xuvk264um6,BAR,Thursday,evening,backward,Sunday,3,3,36079.5,Evening (after 6 pm),"My father, and mother, we went to a restaurant.",2,2,0,2,0,0,0,0,2,,
2064,xuvk264um6,BAR,Thursday,midday,backward,Sunday,3,3,7307.6,Midday (noon - 6 pm),My father and mother at home,2,0,0,2,0,0,0,0,0,,
2064,xuvk264um6,BAR,Thursday,morning,backward,Sunday,3,3,4991.8,Morning (until noon),Slept until noon,0,0,0,0,0,0,0,0,0,,
2065,ycl1houdrk,BAR,Wednesday,evening,backward,Wednesday,0,0,21000.4,Evening (after 6 pm),no one,1,1,1,1,0,0,0,1,1,,
2065,ycl1houdrk,BAR,Wednesday,midday,backward,Wednesday,0,0,36827.7,Midday (noon - 6 pm),my parents,2,2,2,2,0,0,0,2,2,,
2065,ycl1houdrk,BAR,Wednesday,morning,backward,Wednesday,0,0,8177.3,Morning (until noon),my parents,2,0,0,2,0,0,0,0,0,,
2065,ycl1houdrk,BAR,Tuesday,evening,backward,Wednesday,1,1,55399.5,Evening (after 6 pm),the man in the convenience store,1,1,1,0,1,1,1,0,0,,
2065,ycl1houdrk,BAR,Tuesday,midday,backward,Wednesday,1,1,24610.7,Midday (noon - 6 pm),a nurse in hospital,1,1,1,0,1,1,1,0,0,,
2065,ycl1houdrk,BAR,Tuesday,morning,backward,Wednesday,1,1,6472.1,Morning (until noon),my dad,1,1,0,1,0,0,0,0,1,,
2065,ycl1houdrk,BAR,Monday,evening,backward,Wednesday,2,2,12780.4,Evening (after 6 pm),my parents,2,2,1,2,0,0,0,1,2,,
2065,ycl1houdrk,BAR,Monday,midday,backward,Wednesday,2,2,9348.8,Midday (noon - 6 pm),my grandma,1,0,0,1,0,0,0,0,0,,
2065,ycl1houdrk,BAR,Monday,morning,backward,Wednesday,2,2,4966.6,Morning (until noon),my grandma,1,0,0,1,0,0,0,0,0,,
2065,ycl1houdrk,BAR,Sunday,evening,backward,Wednesday,3,3,11723,Evening (after 6 pm),my parents,2,2,0,2,0,0,0,0,2,,
2065,ycl1houdrk,BAR,Sunday,midday,backward,Wednesday,3,3,31340.3,Midday (noon - 6 pm),no one,0,0,0,0,0,0,0,0,0,,
2065,ycl1houdrk,BAR,Sunday,morning,backward,Wednesday,3,3,26218.1,Morning (until noon),the cashier at McDonald's,1,0,0,0,0,0,0,0,0,,
2066,ypqwnufzr1,FR,FR,FR,FR,Sunday,0,0,183530.9,FR,"Heather Howard , Swarna Jammalamadaka , Sravya Jayanti , Aneena Joseph , Mekha Manoj , Nima Chaudhari, Paul Shenny , Adith Narayanan , Arnold Ancheril , Dylan Mendez , Srinu Rayudu, Aditya Perswal , Rose Vellapally, Masha Kozlova , Saisu Talusu , Safa Lakhany, Justin Magsino, Anurag Veliveti , Rohan Sathe",19,,19,19,0,0,0,19,19,,
2067,yrhx70scwa,FR,FR,FR,FR,Saturday,0,0,62958.4,FR,"Alaa Nayef, Min Kang, Karim Al-Juboory, Hussein Al-Juboory, Ki Lim, Andrew Diep, The cashier at chipotle, The librarian on the second floor of the champaign public libary, Eric Kwok, David Kutz",11,,11,10,1,1,1,10,10,,
2068,z18q2ogxe0,FOR,Tuesday,morning,forward,Friday,3,0,65144.4,Morning (until noon),"kara, ellyce, alison, julian, melissa, alexis",7,7,7,7,0,0,0,7,7,,
2068,z18q2ogxe0,FOR,Tuesday,midday,forward,Friday,3,0,46525.9,Midday (noon - 6 pm),"ellyce, kara, psyc 239 table, chelsea",5,5,5,3,2,2,2,3,3,y,
2068,z18q2ogxe0,FOR,Tuesday,evening,forward,Friday,3,0,12653.8,Evening (after 6 pm),ellyce,2,2,2,2,0,0,0,2,2,,
2068,z18q2ogxe0,FOR,Wednesday,morning,forward,Friday,2,1,15335.7,Morning (until noon),ellyce,1,1,0,1,0,0,0,0,1,,
2068,z18q2ogxe0,FOR,Wednesday,midday,forward,Friday,2,1,5489.3,Midday (noon - 6 pm),ellyce,1,3,3,3,0,0,0,3,3,,
2068,z18q2ogxe0,FOR,Wednesday,evening,forward,Friday,2,1,7260.9,Evening (after 6 pm),"ellyce, max",2,0,1,2,0,0,0,1,0,,
2068,z18q2ogxe0,FOR,Thursday,morning,forward,Friday,1,2,8381.6,Morning (until noon),noone,0,0,0,0,0,0,0,0,0,,
2068,z18q2ogxe0,FOR,Thursday,midday,forward,Friday,1,2,37714.9,Midday (noon - 6 pm),"psyc 239, garret, Dr. Giorgio, psyc 239 table",4,4,4,2,2,2,2,2,2,y,
2068,z18q2ogxe0,FOR,Thursday,evening,forward,Friday,1,2,7167.7,Evening (after 6 pm),xx,0,0,0,0,0,0,0,0,0,,
2068,z18q2ogxe0,FOR,Friday,morning,forward,Friday,0,3,9093.2,Morning (until noon),xx,0,0,0,0,0,0,0,0,0,,
2068,z18q2ogxe0,FOR,Friday,midday,forward,Friday,0,3,4739.7,Midday (noon - 6 pm),Ellyce,1,1,1,1,0,0,0,1,1,,
2068,z18q2ogxe0,FOR,Friday,evening,forward,Friday,0,3,6993.5,Evening (after 6 pm),xx,0,0,0,0,0,0,0,0,0,,
2069,zpv1g8mvgf,FR,FR,FR,FR,Tuesday,0,0,88752.6,FR,"Front Desk Gym Employee, Mother, Father, Younger Brother, Older Brother, Neice, Grandpa, Grandma, Target Cashier, Walmart Employee (Assistance), Other people working out at the gym",12,,12,7,5,5,5,7,7,y,
2070,4vf2sm0gbe,FR,FR,FR,FR,Wednesday,0,0,223195,FR,"Jake Geleerd, Lauren Linares, Ashlyn ??, Chloe ??, Emma ??, Toni DeLuca, Alex Gille, Doctor Alex ??, Nurse ?? ??, Teacher, Salon girl, Classmates",12,,12,10,2,2,2,10,10,y,
2071,9eost3939u,BAR,Thursday,evening,backward,Thursday,0,0,8728.2,Evening (after 6 pm),Dominic,2,4,4,4,0,0,0,4,4,,
2071,9eost3939u,BAR,Thursday,midday,backward,Thursday,0,0,18347,Midday (noon - 6 pm),"Dominic, Sofie, Owen",3,3,3,3,0,0,0,3,3,,
2071,9eost3939u,BAR,Thursday,morning,backward,Thursday,0,0,6617.1,Morning (until noon),XX,0,0,0,0,0,0,0,0,0,,
2071,9eost3939u,BAR,Wednesday,evening,backward,Thursday,1,1,13833.3,Evening (after 6 pm),"Sofie , Dominic, Paddy, Owen",4,0,1,4,0,0,0,1,0,,
2071,9eost3939u,BAR,Wednesday,midday,backward,Thursday,1,1,11834.4,Midday (noon - 6 pm),Dominic,1,0,0,1,0,0,0,0,0,,
2071,9eost3939u,BAR,Wednesday,morning,backward,Thursday,1,1,3215.2,Morning (until noon),XX,0,0,0,0,0,0,0,0,0,,
2071,9eost3939u,BAR,Tuesday,evening,backward,Thursday,2,2,29091.1,Evening (after 6 pm),"Paddy, Owen",2,2,0,2,0,0,0,0,2,,
2071,9eost3939u,BAR,Tuesday,midday,backward,Thursday,2,2,49786.5,Midday (noon - 6 pm),"Chloe, Dominic, Owen, ",3,1,1,3,0,0,0,1,1,,
2071,9eost3939u,BAR,Tuesday,morning,backward,Thursday,2,2,8542.7,Morning (until noon),XX,0,0,0,0,0,0,0,0,0,,
2071,9eost3939u,BAR,Monday,evening,backward,Thursday,3,3,40561.6,Evening (after 6 pm),"Dominic, Paddy, Owen, Sofie, Chloe",5,5,2,5,0,0,0,2,5,,
2071,9eost3939u,BAR,Monday,midday,backward,Thursday,3,3,4509.4,Midday (noon - 6 pm),XX,0,0,0,0,0,0,0,0,0,,
2071,9eost3939u,BAR,Monday,morning,backward,Thursday,3,3,2356.8,Morning (until noon),XX,0,0,0,0,0,0,0,0,0,,
2072,an4w6l4k4h,FOR,Friday,morning,forward,Monday,3,0,114483.1,Morning (until noon),"My roommate Camila, My PS 280 section instructor , My Ps 270 section instructor Kevin, , A classmate of mine in PS 270 , Leah my friend, A girl near my workout station at the treadmill ",8,8,8,7,1,1,1,7,7,,
2072,an4w6l4k4h,FOR,Friday,midday,forward,Monday,3,0,50577.2,Midday (noon - 6 pm),"The lifeguard at the Arc Pool , My roommate Camila ",4,3,3,3,1,0,0,3,3,,
2072,an4w6l4k4h,FOR,Friday,evening,forward,Monday,3,0,5544.9,Evening (after 6 pm),No one,0,0,0,0,0,0,0,0,0,,
2072,an4w6l4k4h,FOR,Saturday,morning,forward,Monday,2,1,61913.6,Morning (until noon),"My roommate camila, Leah at the Arc gym, A student near my workout station , The lifeguard at the arc pool , Students in the lane next to me",6,6,5,2,4,4,4,1,2,y,
2072,an4w6l4k4h,FOR,Saturday,midday,forward,Monday,2,1,68566.3,Midday (noon - 6 pm),"Subway clerk , My roommate Camila , My friend Isreal",3,3,2,2,1,0,0,2,3,,
2072,an4w6l4k4h,FOR,Saturday,evening,forward,Monday,2,1,73415.7,Evening (after 6 pm),"Subway clerk , My roommate Camila , My friend Isreal",3,1,1,2,1,1,1,0,0,,
2072,an4w6l4k4h,FOR,Sunday,morning,forward,Monday,1,2,28967.5,Morning (until noon),Roommate Camila,1,1,0,1,0,0,0,0,1,,
2072,an4w6l4k4h,FOR,Sunday,midday,forward,Monday,1,2,32437.9,Midday (noon - 6 pm),Roommate Camila,1,0,0,1,0,0,0,0,0,,
2072,an4w6l4k4h,FOR,Sunday,evening,forward,Monday,1,2,8048.6,Evening (after 6 pm),Roommate Camila,1,0,0,1,0,0,0,0,0,,
2072,an4w6l4k4h,FOR,Monday,morning,forward,Monday,0,3,91610.5,Morning (until noon),"Classmate in my PS 280 course , my friend Leah, My roommate Camila , Classmates from my astrology course",5,5,2,5,0,0,0,2,5,y,
2072,an4w6l4k4h,FOR,Monday,midday,forward,Monday,0,3,6403.2,Midday (noon - 6 pm),no one,0,0,0,0,0,0,0,0,0,,
2072,an4w6l4k4h,FOR,Monday,evening,forward,Monday,0,3,122020.2,Evening (after 6 pm),"Greta , Anna, Bella W., Bella G. , Zofie, Allie , Nicole , Julissa, Monica , Kortney",10,5,5,10,0,0,0,5,5,,
2073,ec7gjecnuu,BAR,Thursday,evening,backward,Thursday,0,0,85241.6,Evening (after 6 pm),"Anna Webber, Cashier at Cafe Paradiso, Marina Foss, Nathaniel Dixon, Emma Mueller, Whitney Fowler, Gwynne Mcgrady , Jessica Coller",10,10,10,8,2,2,2,8,8,,
2073,ec7gjecnuu,BAR,Thursday,midday,backward,Thursday,0,0,26886.2,Midday (noon - 6 pm),"Anna Webber, Maggie Komes, Mady Siamonis",3,3,3,3,0,0,0,3,3,,
2073,ec7gjecnuu,BAR,Thursday,morning,backward,Thursday,0,0,11530.8,Morning (until noon),No one,0,0,0,0,0,0,0,0,0,,
2073,ec7gjecnuu,BAR,Wednesday,evening,backward,Thursday,1,1,64518.7,Evening (after 6 pm),Naomi Spacil,1,1,0,1,0,0,0,0,1,,
2073,ec7gjecnuu,BAR,Wednesday,midday,backward,Thursday,1,1,34403.9,Midday (noon - 6 pm),"Jessica Coller, Whitney Fowler, Emma Mueller, Marina Foss",5,4,2,4,0,0,0,2,4,,
2073,ec7gjecnuu,BAR,Wednesday,morning,backward,Thursday,1,1,7139.1,Morning (until noon),No one,0,0,0,0,0,0,0,0,0,,
2073,ec7gjecnuu,BAR,Tuesday,evening,backward,Thursday,2,2,81382.9,Evening (after 6 pm),"Mithcel Devine , Ryan from Work , Julianna from Work, Allyson Kamrat",4,4,0,4,0,0,0,0,4,,
2073,ec7gjecnuu,BAR,Tuesday,midday,backward,Thursday,2,2,33529.7,Midday (noon - 6 pm),"Mady Siamonis , Emma Stone",2,0,0,2,0,0,0,0,0,,
2073,ec7gjecnuu,BAR,Tuesday,morning,backward,Thursday,2,2,9411.3,Morning (until noon),Mady Siamonis,1,0,0,1,0,0,0,0,0,,
2073,ec7gjecnuu,BAR,Monday,evening,backward,Thursday,3,3,26223.1,Evening (after 6 pm),"Nathaniel Dixon, Marina Foss, Emma Mueller, Whitney Fowler, Gwynne Mcgrady",5,5,1,5,0,0,0,1,5,,
2073,ec7gjecnuu,BAR,Monday,midday,backward,Thursday,3,3,9617.3,Midday (noon - 6 pm),"Aidan Gardner , Emma Stone",2,0,0,2,0,0,0,0,0,,
2073,ec7gjecnuu,BAR,Monday,morning,backward,Thursday,3,3,6790,Morning (until noon),Mady Siamonis,1,0,0,1,0,0,0,0,0,,
2074,gnv98ejnjo,BAR,Sunday,evening,backward,Sunday,0,0,12087.5,Evening (after 6 pm),"Brendan, Caden",5,5,5,5,0,0,0,5,5,,
2074,gnv98ejnjo,BAR,Sunday,midday,backward,Sunday,0,0,26968.9,Midday (noon - 6 pm),7 people who I played basketball with,7,7,7,7,0,0,0,7,7,,
2074,gnv98ejnjo,BAR,Sunday,morning,backward,Sunday,0,0,8129.3,Morning (until noon),fiona,1,1,1,1,0,0,0,1,1,,
2074,gnv98ejnjo,BAR,Saturday,evening,backward,Sunday,1,1,14235.4,Evening (after 6 pm),fiona,1,1,0,1,0,0,0,0,1,,
2074,gnv98ejnjo,BAR,Saturday,midday,backward,Sunday,1,1,20146.6,Midday (noon - 6 pm),"mike, nick, brendan , caden, waitress",5,4,3,4,1,1,1,2,3,,
2074,gnv98ejnjo,BAR,Saturday,morning,backward,Sunday,1,1,8190.5,Morning (until noon),no one,0,0,0,0,0,0,0,0,0,,
2074,gnv98ejnjo,BAR,Friday,evening,backward,Sunday,2,2,8055.8,Evening (after 6 pm),"brendan, caden",2,2,1,2,0,0,0,1,2,,
2074,gnv98ejnjo,BAR,Friday,midday,backward,Sunday,2,2,28956.2,Midday (noon - 6 pm),"cora, 3 rhet 105 classmates",4,2,2,4,0,0,0,2,2,,
2074,gnv98ejnjo,BAR,Friday,morning,backward,Sunday,2,2,7598.2,Morning (until noon),brendan,1,0,0,1,0,0,0,0,0,,
2074,gnv98ejnjo,BAR,Thursday,evening,backward,Sunday,3,3,10734.8,Evening (after 6 pm),bridger,1,1,1,1,0,0,0,1,1,,
2074,gnv98ejnjo,BAR,Thursday,midday,backward,Sunday,3,3,11161.4,Midday (noon - 6 pm),"caden, bridger",2,1,1,2,0,0,0,1,1,,
2074,gnv98ejnjo,BAR,Thursday,morning,backward,Sunday,3,3,16014.9,Morning (until noon),ed,1,0,0,1,0,0,0,0,0,,
2075,h1xwlcsbzs,BAR,Tuesday,evening,backward,Tuesday,0,0,18513.7,Evening (after 6 pm),"Miriam, Samaia, Eric, Isak, Matthew, Luis, Carlos, John, Emily, Greta, Sean, Sonali",5,5,5,5,0,0,0,5,5,,
2075,h1xwlcsbzs,BAR,Tuesday,midday,backward,Tuesday,0,0,12277.5,Midday (noon - 6 pm),"Miriam, Matthew , Samaia",12,7,7,7,0,0,0,7,7,,
2075,h1xwlcsbzs,BAR,Tuesday,morning,backward,Tuesday,0,0,7320.4,Morning (until noon),Matthew,1,1,1,1,0,0,0,1,1,,
2075,h1xwlcsbzs,BAR,Monday,evening,backward,Tuesday,1,1,42795.7,Evening (after 6 pm),"Matthew, Miriam, Samaia, Maria",4,4,1,4,0,0,0,1,4,,
2075,h1xwlcsbzs,BAR,Monday,midday,backward,Tuesday,1,1,11314.9,Midday (noon - 6 pm),"Miriam, Matthew, Samaia",3,0,0,3,0,0,0,0,0,,
2075,h1xwlcsbzs,BAR,Monday,morning,backward,Tuesday,1,1,7544,Morning (until noon),Matthew,1,0,0,1,0,0,0,0,0,,
2075,h1xwlcsbzs,BAR,Sunday,evening,backward,Tuesday,2,2,18900.5,Evening (after 6 pm),"Miriam, Sonali, Samaia, Jacob, Matthew, Chase",6,6,3,6,0,0,0,3,6,,
2075,h1xwlcsbzs,BAR,Sunday,midday,backward,Tuesday,2,2,7472.7,Midday (noon - 6 pm),"Matthew, Samaia, Maria",3,0,0,3,0,0,0,0,0,,
2075,h1xwlcsbzs,BAR,Sunday,morning,backward,Tuesday,2,2,5994.6,Morning (until noon),Matthew,1,0,0,1,0,0,0,0,0,,
2075,h1xwlcsbzs,BAR,Saturday,evening,backward,Tuesday,3,3,66505.4,Evening (after 6 pm),"Miriam, Matthew , Samaia",3,3,0,3,0,0,0,0,3,,
2075,h1xwlcsbzs,BAR,Saturday,midday,backward,Tuesday,3,3,16049.1,Midday (noon - 6 pm),"Samaia, Sonali, Miriam, EMily, Matthew",5,2,1,5,0,0,0,1,2,,
2075,h1xwlcsbzs,BAR,Saturday,morning,backward,Tuesday,3,3,6780.1,Morning (until noon),"Samaia, Maria, Matthew",3,0,0,3,0,0,0,0,0,,
2076,hf3b06t8n0,FR,FR,FR,FR,Wednesday,0,0,67851.8,FR,"my roommate, my coworkers, my boss, psych teacher, Spanish teacher, spanish students, psych students, hdfs teacher, hdfs students, 57 workers",15,,15,10,5,5,5,10,10,y,
2077,hyun7fopx5,FOR,Wednesday,morning,forward,Saturday,3,0,57870,Morning (until noon),"Mom , Dad, Nate, Grandma , Papa",7,7,7,7,0,0,0,7,7,,
2077,hyun7fopx5,FOR,Wednesday,midday,forward,Saturday,3,0,9721.3,Midday (noon - 6 pm),"Mom , Nate",2,2,2,2,0,0,0,2,2,,
2077,hyun7fopx5,FOR,Wednesday,evening,forward,Saturday,3,0,10316.4,Evening (after 6 pm),"Dad , Mom , Nate , Max",6,5,5,6,0,0,0,5,5,,
2077,hyun7fopx5,FOR,Thursday,morning,forward,Saturday,2,1,31385.7,Morning (until noon),"Elle , Syd, Jen , Gabby , Profesor ",5,5,5,5,0,0,0,5,5,,
2077,hyun7fopx5,FOR,Thursday,midday,forward,Saturday,2,1,13434,Midday (noon - 6 pm),"Elle , Syd , Jen , Elizabeth , Katie , grace",6,1,1,6,0,0,0,1,1,,
2077,hyun7fopx5,FOR,Thursday,evening,forward,Saturday,2,1,5290.3,Evening (after 6 pm),"Elle , Syd , Jen",3,0,0,3,0,0,0,0,0,,
2077,hyun7fopx5,FOR,Friday,morning,forward,Saturday,1,2,9645.5,Morning (until noon),"Elle , Syd , Jen",3,3,0,3,0,0,0,0,3,,
2077,hyun7fopx5,FOR,Friday,midday,forward,Saturday,1,2,29372.3,Midday (noon - 6 pm),"Elle , Syd , Jen , Grace, Hualde , Madison , Mom",7,5,2,7,0,0,0,2,5,,
2077,hyun7fopx5,FOR,Friday,evening,forward,Saturday,1,2,6002.4,Evening (after 6 pm),"Mom , Dad , Nate",3,1,1,3,0,0,0,1,1,,
2077,hyun7fopx5,FOR,Saturday,morning,forward,Saturday,0,3,9871.2,Morning (until noon),"Mom , Dad",2,2,0,2,0,0,0,0,2,,
2077,hyun7fopx5,FOR,Saturday,midday,forward,Saturday,0,3,4490.5,Midday (noon - 6 pm),"Mom , Dad",2,0,0,2,0,0,0,0,0,,
2077,hyun7fopx5,FOR,Saturday,evening,forward,Saturday,0,3,4488.7,Evening (after 6 pm),n/a,0,0,0,0,0,0,0,0,0,,
2078,kp1uu9cbfj,FOR,Tuesday,morning,forward,Friday,3,0,89502.3,Morning (until noon),"Belen (roommate) , One girl in Kin 104 class, Cesar and Soumil for lunch",8,8,8,6,2,2,2,6,6,,
2078,kp1uu9cbfj,FOR,Tuesday,midday,forward,Friday,3,0,41825.1,Midday (noon - 6 pm),"4 people in psych class group , 1 person who I sat by in Calc lecture , Peter (dinner)",6,6,6,1,5,5,5,1,1,,
2078,kp1uu9cbfj,FOR,Tuesday,evening,forward,Friday,3,0,9891.3,Evening (after 6 pm),Belen,1,0,0,1,0,0,0,0,0,,
2078,kp1uu9cbfj,FOR,Wednesday,morning,forward,Friday,2,1,31227.5,Morning (until noon),"Amylda, Meridith, Michael, Jay, Sean (Calc group)",5,5,5,5,0,0,0,5,5,,
2078,kp1uu9cbfj,FOR,Wednesday,midday,forward,Friday,2,1,7526.4,Midday (noon - 6 pm),Belen,1,1,0,1,0,0,0,0,1,,
2078,kp1uu9cbfj,FOR,Wednesday,evening,forward,Friday,2,1,4016.6,Evening (after 6 pm),Belen,1,0,0,1,0,0,0,0,0,,
2078,kp1uu9cbfj,FOR,Thursday,morning,forward,Friday,1,2,40944.5,Morning (until noon),"Girl in kin 104 class, Belen",2,2,2,1,1,1,1,1,1,,
2078,kp1uu9cbfj,FOR,Thursday,midday,forward,Friday,1,2,26790.2,Midday (noon - 6 pm),"Psych group, calc lecture 1 person, Belen",6,5,5,1,5,5,5,0,0,,
2078,kp1uu9cbfj,FOR,Thursday,evening,forward,Friday,1,2,5107.9,Evening (after 6 pm),No one,0,0,0,0,0,0,0,0,0,,
2078,kp1uu9cbfj,FOR,Friday,morning,forward,Friday,0,3,38654,Morning (until noon),"Amylda, Michael, Meridith, Sean, Jay (Calc), Aidan , Belen",7,7,4,7,0,0,0,4,7,,
2078,kp1uu9cbfj,FOR,Friday,midday,forward,Friday,0,3,10113.5,Midday (noon - 6 pm),Aidan,1,1,1,1,0,0,0,1,1,,
2078,kp1uu9cbfj,FOR,Friday,evening,forward,Friday,0,3,8562.9,Evening (after 6 pm),"Aidan, Belen",2,0,0,2,0,0,0,0,0,,
2079,mu24kztx37,FR,FR,FR,FR,Thursday,0,0,127700.3,FR,"Sharanya (my roommate), Neel (roommate's friend), Sneha (lives in the corridor), Diksha (lives in the corridor), Chloe (lives in the corridor), Sydney (lives in the corridor), Person I sat next to in math class, Group of 3 people I sat with during math discussion, Person I sat next to during stats class, People in front of and back of me in the line at the dining hall , Ira (roommate's friend), Viren (roommate's friend), Ruby (had dinner with two days ago)}",12,,12,8,4,4,4,8,8,,
2080,qz4acoynsn,FOR,Friday,morning,forward,Monday,3,0,64248.3,Morning (until noon),"Lupita, Caridad",5,5,5,5,0,0,0,5,5,,
2080,qz4acoynsn,FOR,Friday,midday,forward,Monday,3,0,17038,Midday (noon - 6 pm),"Lupita, Caridad",4,3,3,2,2,2,2,1,1,,
2080,qz4acoynsn,FOR,Friday,evening,forward,Monday,3,0,13531.1,Evening (after 6 pm),"Lupita, Caridad, Emily",3,1,1,3,0,0,0,1,1,,
2080,qz4acoynsn,FOR,Saturday,morning,forward,Monday,2,1,19603,Morning (until noon),"Emily, Caridad, Lupita",3,3,0,3,0,0,0,0,3,,
2080,qz4acoynsn,FOR,Saturday,midday,forward,Monday,2,1,6789.9,Midday (noon - 6 pm),"Caridad, Lupita",2,2,1,2,0,0,0,1,2,,
2080,qz4acoynsn,FOR,Saturday,evening,forward,Monday,2,1,7117.3,Evening (after 6 pm),"Caridad, Lupita",3,1,0,3,0,0,0,0,1,,
2080,qz4acoynsn,FOR,Sunday,morning,forward,Monday,1,2,13944,Morning (until noon),"Lupita, Caridad, Emily",3,3,0,3,0,0,0,0,3,,
2080,qz4acoynsn,FOR,Sunday,midday,forward,Monday,1,2,24987.4,Midday (noon - 6 pm),"Lupita, Caridad, Emily, uber driver",4,1,1,3,1,1,1,0,0,,
2080,qz4acoynsn,FOR,Sunday,evening,forward,Monday,1,2,10397.6,Evening (after 6 pm),"Lupita, Caridad, Emily",3,0,0,3,0,0,0,0,0,,
2080,qz4acoynsn,FOR,Monday,morning,forward,Monday,0,3,7181.3,Morning (until noon),"Lupita, Caridad",2,2,2,2,0,0,0,2,2,,
2080,qz4acoynsn,FOR,Monday,midday,forward,Monday,0,3,5109.4,Midday (noon - 6 pm),Lupita,1,0,0,1,0,0,0,0,0,,
2080,qz4acoynsn,FOR,Monday,evening,forward,Monday,0,3,6542.8,Evening (after 6 pm),noone,0,0,0,0,0,0,0,0,0,,
2081,r44uqqchzo,FR,FR,FR,FR,Saturday,0,0,108720,FR,"sophie, katie, jennifer, howard, ling lee chong, slauch , discussion group members (3), kenzie, worker at dining hall, worker at convenience store, zhang ",13,,13,11,2,2,2,11,11,,
2082,r76z18bzhx,BAR,Saturday,evening,backward,Saturday,0,0,54857.6,Evening (after 6 pm),"Kathryn, Rosalind, Ivy",5,5,5,5,0,0,0,5,5,,
2082,r76z18bzhx,BAR,Saturday,midday,backward,Saturday,0,0,135043.3,Midday (noon - 6 pm),"Jack, Loretta, Tony, Brian, Vincent, Charles, Raymond, Rachel",8,4,4,8,0,0,0,4,4,,
2082,r76z18bzhx,BAR,Saturday,morning,backward,Saturday,0,0,9579.6,Morning (until noon),Lily,1,1,1,1,0,0,0,1,1,,
2082,r76z18bzhx,BAR,Friday,evening,backward,Saturday,1,1,22796.4,Evening (after 6 pm),"Kathryn , Rosalind, Ivy",3,3,2,3,0,0,0,2,3,,
2082,r76z18bzhx,BAR,Friday,midday,backward,Saturday,1,1,230012.9,Midday (noon - 6 pm),"Kelly, Addison, Rosalind, Kathryn, Ivy, Lily",6,3,2,6,0,0,0,2,3,,
2082,r76z18bzhx,BAR,Friday,morning,backward,Saturday,1,1,9951.8,Morning (until noon),Lily,1,0,0,1,0,0,0,0,0,,
2082,r76z18bzhx,BAR,Thursday,evening,backward,Saturday,2,2,73102.9,Evening (after 6 pm),"Lily, Rosalind",2,2,1,2,0,0,0,1,2,,
2082,r76z18bzhx,BAR,Thursday,midday,backward,Saturday,2,2,4871.4,Midday (noon - 6 pm),Lily,1,0,0,1,0,0,0,0,0,,
2082,r76z18bzhx,BAR,Thursday,morning,backward,Saturday,2,2,6010.2,Morning (until noon),Lily,1,0,0,1,0,0,0,0,0,,
2082,r76z18bzhx,BAR,Wednesday,evening,backward,Saturday,3,3,5545.7,Evening (after 6 pm),Lily,1,1,0,1,0,0,0,0,1,,
2082,r76z18bzhx,BAR,Wednesday,midday,backward,Saturday,3,3,8564.2,Midday (noon - 6 pm),Lily,1,0,0,1,0,0,0,0,0,,
2082,r76z18bzhx,BAR,Wednesday,morning,backward,Saturday,3,3,6266.7,Morning (until noon),Lily,1,0,0,1,0,0,0,0,0,,
2083,rcqtr4ktvl,FR,FR,FR,FR,Monday,0,0,260097.9,FR,"Sam, Sam, Sam, Pat, Jimmy, Jack, Nicholas, Simon, Ron, Emily, Sonia, Katie, Gabby, Michael, Lydia, Evelyn, Ellie, Candy, 4 girls in my Psychology 100 class",22,,22,18,4,4,4,18,18,,
2084,rd7st4orx4,FOR,Thursday,morning,forward,Sunday,3,0,30453.8,Morning (until noon),"Ashli, , The gym staff",12,12,12,2,10,10,10,2,2,y,
2084,rd7st4orx4,FOR,Thursday,midday,forward,Sunday,3,0,16759.2,Midday (noon - 6 pm),Nobody,0,0,0,0,0,0,0,0,0,,
2084,rd7st4orx4,FOR,Thursday,evening,forward,Sunday,3,0,7447.5,Evening (after 6 pm),Nobody,6,6,6,6,0,0,0,6,6,,
2084,rd7st4orx4,FOR,Friday,morning,forward,Sunday,2,1,14368,Morning (until noon),The gym staff,2,2,0,0,2,0,2,0,0,y,
2084,rd7st4orx4,FOR,Friday,midday,forward,Sunday,2,1,4026.3,Midday (noon - 6 pm),nobody,1,1,1,0,0,0,0,1,1,,
2084,rd7st4orx4,FOR,Friday,evening,forward,Sunday,2,1,5260.9,Evening (after 6 pm),nobody,7,4,3,5,2,0,0,3,4,,
2084,rd7st4orx4,FOR,Saturday,morning,forward,Sunday,1,2,14327.4,Morning (until noon),Ashli,4,4,0,1,0,0,0,0,4,,
2084,rd7st4orx4,FOR,Saturday,midday,forward,Sunday,1,2,7910.5,Midday (noon - 6 pm),"My boss, , Co worker",2,2,2,2,0,0,0,2,2,,
2084,rd7st4orx4,FOR,Saturday,evening,forward,Sunday,1,2,14282.9,Evening (after 6 pm),"Shakira, , Potbelly staff",3,3,3,1,2,2,2,1,1,y,
2084,rd7st4orx4,FOR,Sunday,morning,forward,Sunday,0,3,20171.7,Morning (until noon),"Gym staff, PAR staff, Ashli",4,4,2,1,4,2,4,0,0,y,
2084,rd7st4orx4,FOR,Sunday,midday,forward,Sunday,0,3,5473,Midday (noon - 6 pm),Nobody,0,0,0,0,0,0,0,0,0,,
2084,rd7st4orx4,FOR,Sunday,evening,forward,Sunday,0,3,5308.7,Evening (after 6 pm),Nobody,0,0,0,0,0,0,0,0,0,,
2085,rxz4wstufd,FR,FR,FR,FR,Wednesday,0,0,109226.1,FR,"Max, Alice, Toby, Deanna, Eliana, Archi, Michelle, Gianna, Alex, Danie",10,,10,10,0,0,0,10,10,,
2086,uqytz46vr1,BAR,Wednesday,evening,backward,Wednesday,0,0,112874.4,Evening (after 6 pm),"Haley, Sydney, Courtney, Shriyal, Nidhi, Alisha, The girl in Courtney's room, The girl in the bathroom , Jackie, The male RA, the female RA",11,11,11,7,4,4,4,7,7,,
2086,uqytz46vr1,BAR,Wednesday,midday,backward,Wednesday,0,0,28244.2,Midday (noon - 6 pm),XX,3,3,3,0,3,3,3,0,0,,
2086,uqytz46vr1,BAR,Wednesday,morning,backward,Wednesday,0,0,4635.8,Morning (until noon),XX,0,0,0,0,0,0,0,0,0,,
2086,uqytz46vr1,BAR,Tuesday,evening,backward,Wednesday,1,1,67619.6,Evening (after 6 pm),"Haley, Sydney, Alisha, Beni, Jakub, Jackson, Miranda, The guy behind me in line at the dining hall, Shriyal, Courtney",10,10,5,9,1,0,1,5,9,,
2086,uqytz46vr1,BAR,Tuesday,midday,backward,Wednesday,1,1,4054.4,Midday (noon - 6 pm),XX,0,0,0,0,0,0,0,0,0,,
2086,uqytz46vr1,BAR,Tuesday,morning,backward,Wednesday,1,1,3319.2,Morning (until noon),XX,0,0,0,0,0,0,0,0,0,,
2086,uqytz46vr1,BAR,Monday,evening,backward,Wednesday,2,2,66815.4,Evening (after 6 pm),"Haley, Alisha, Sydney, Shriyal, Courtney",5,5,2,5,0,0,0,2,5,,
2086,uqytz46vr1,BAR,Monday,midday,backward,Wednesday,2,2,28632.9,Midday (noon - 6 pm),Aidan,1,1,1,1,0,0,0,1,1,,
2086,uqytz46vr1,BAR,Monday,morning,backward,Wednesday,2,2,12364.5,Morning (until noon),"The guy sitting behind me in Biostats, The girl near me at 57",2,2,2,0,2,2,2,0,0,,
2086,uqytz46vr1,BAR,Sunday,evening,backward,Wednesday,3,3,28925,Evening (after 6 pm),"Alisha, Shriyal, Courtney",3,3,0,3,0,0,0,0,3,,
2086,uqytz46vr1,BAR,Sunday,midday,backward,Wednesday,3,3,7436.9,Midday (noon - 6 pm),"Erica, Jackie, Nidhi",3,3,2,3,0,0,0,2,3,,
2086,uqytz46vr1,BAR,Sunday,morning,backward,Wednesday,3,3,3732.3,Morning (until noon),XX,0,0,0,0,0,0,0,0,0,,
2087,w6ja9f0s0f,FOR,Thursday,morning,forward,Sunday,3,0,178131.3,Morning (until noon),"Marley Neamand , Sara Roberts, Mia Mangialardi, 20 or so classmates in lab, 70 or so classmates in lecture , TA in lecture, TA in lab, Workers in coffee shop , people in the elevator (about 5)",112,112,112,5,97,97,97,15,15,y,
2087,w6ja9f0s0f,FOR,Thursday,midday,forward,Sunday,3,0,63075.1,Midday (noon - 6 pm),"Marley Neamand , Sara Roberts, Mia Mangialardi, People in the elevator (about 3)",6,6,6,3,3,3,3,3,3,,
2087,w6ja9f0s0f,FOR,Thursday,evening,forward,Sunday,3,0,14656.8,Evening (after 6 pm),"Marley Neamand , Sara Roberts, Mia Mangialardi",3,2,2,3,0,0,0,2,2,,
2087,w6ja9f0s0f,FOR,Friday,morning,forward,Sunday,2,1,50875.1,Morning (until noon),"Marley Neamand , Sara Roberts, Mia Mangialardi, 70 or so classmates in lecture , TA in lecture, People in the elevator (about 5)",79,79,32,4,75,28,75,4,4,,
2087,w6ja9f0s0f,FOR,Friday,midday,forward,Sunday,2,1,40959.3,Midday (noon - 6 pm),"Marley Neamand , Sara Roberts, Mia Mangialardi, People in the elevator (1)",4,1,1,3,1,0,0,1,1,,
2087,w6ja9f0s0f,FOR,Friday,evening,forward,Sunday,2,1,12113.7,Evening (after 6 pm),"Marley Neamand , Sara Roberts, Mia Mangialardi",3,0,0,3,0,0,0,0,0,,
2087,w6ja9f0s0f,FOR,Saturday,morning,forward,Sunday,1,2,12423.9,Morning (until noon),"Marley Neamand , Sara Roberts, Mia Mangialardi",3,3,0,3,0,0,0,0,3,,
2087,w6ja9f0s0f,FOR,Saturday,midday,forward,Sunday,1,2,10436.5,Midday (noon - 6 pm),"Marley Neamand , Sara Roberts, Mia Mangialardi",3,0,0,3,0,0,0,0,0,,
2087,w6ja9f0s0f,FOR,Saturday,evening,forward,Sunday,1,2,49953.9,Evening (after 6 pm),"Marley Neamand , Sara Roberts, Mia Mangialardi, Emilia Ruszel , Jenae",5,2,2,5,0,0,0,2,2,,
2087,w6ja9f0s0f,FOR,Sunday,morning,forward,Sunday,0,3,23791.6,Morning (until noon),"Marley Neamand , Sara Roberts, Mia Mangialardi",3,3,0,3,0,0,0,0,3,,
2087,w6ja9f0s0f,FOR,Sunday,midday,forward,Sunday,0,3,8376.6,Midday (noon - 6 pm),"Marley Neamand , Sara Roberts, Mia Mangialardi",3,0,0,3,0,0,0,0,0,,
2087,w6ja9f0s0f,FOR,Sunday,evening,forward,Sunday,0,3,10174.7,Evening (after 6 pm),"Marley Neamand , Sara Roberts, Mia Mangialardi",3,0,0,3,0,0,0,0,0,,
2088,wbwpchobe0,BAR,Saturday,evening,backward,Saturday,0,0,98360.4,Evening (after 6 pm),"8 friends who i don't want to name, my roommate shao min",13,13,13,13,0,0,0,13,13,,
2088,wbwpchobe0,BAR,Saturday,midday,backward,Saturday,0,0,32959.3,Midday (noon - 6 pm),no one,4,3,3,3,0,0,0,3,3,,
2088,wbwpchobe0,BAR,Saturday,morning,backward,Saturday,0,0,5088,Morning (until noon),no one,0,0,0,0,0,0,0,0,0,,
2088,wbwpchobe0,BAR,Friday,evening,backward,Saturday,1,1,72421.4,Evening (after 6 pm),"8 friends, satvik, rishi, went to a bar and met 3 people with whom i was in contact for. more than 30 seconds, my parents",15,15,9,12,3,3,3,6,12,,
2088,wbwpchobe0,BAR,Friday,midday,backward,Saturday,1,1,23386.1,Midday (noon - 6 pm),my parents,2,0,0,2,0,0,0,0,0,,
2088,wbwpchobe0,BAR,Friday,morning,backward,Saturday,1,1,4327.8,Morning (until noon),no one,0,0,0,0,0,0,0,0,0,,
2088,wbwpchobe0,BAR,Thursday,evening,backward,Saturday,2,2,34949.4,Evening (after 6 pm),"sonakshi, tanisha, 8 friends of mine",10,10,8,10,0,0,0,8,10,,
2088,wbwpchobe0,BAR,Thursday,midday,backward,Saturday,2,2,8106.4,Midday (noon - 6 pm),the clerk at terrabyte,1,1,1,0,1,1,1,0,0,,
2088,wbwpchobe0,BAR,Thursday,morning,backward,Saturday,2,2,4029.4,Morning (until noon),no one,0,0,0,0,0,0,0,0,0,,
2088,wbwpchobe0,BAR,Wednesday,evening,backward,Saturday,3,3,16331.6,Evening (after 6 pm),no one,0,0,0,0,0,0,0,0,0,,
2088,wbwpchobe0,BAR,Wednesday,midday,backward,Saturday,3,3,4079.1,Midday (noon - 6 pm),no one,0,0,0,0,0,0,0,0,0,,
2088,wbwpchobe0,BAR,Wednesday,morning,backward,Saturday,3,3,2585.2,Morning (until noon),no one,0,0,0,0,0,0,0,0,0,,
2089,xynownuq9m,BAR,Sunday,evening,backward,Sunday,0,0,63899,Evening (after 6 pm),"My roommate, my friends Andrew, Gio, and Chris. People at the gym too",8,8,8,6,2,2,2,6,6,y,
2089,xynownuq9m,BAR,Sunday,midday,backward,Sunday,0,0,36336.8,Midday (noon - 6 pm),my roommate,1,1,1,1,0,0,0,1,1,,
2089,xynownuq9m,BAR,Sunday,morning,backward,Sunday,0,0,11667.2,Morning (until noon),no one because I was asleep,0,0,0,0,0,0,0,0,0,,
2089,xynownuq9m,BAR,Saturday,evening,backward,Sunday,1,1,36694.8,Evening (after 6 pm),"My mom, dad, and brother",3,3,3,3,0,0,0,3,3,,
2089,xynownuq9m,BAR,Saturday,midday,backward,Sunday,1,1,10246.2,Midday (noon - 6 pm),"My mom, dad, and brother",3,0,0,3,0,0,0,0,0,,
